timestamp,acce_x,acce_y,acce_z,gyro_x,gyro_y,gyro_z
0.003,-0.13,0.24,1.03,4.35,-7.48,-6.03
0.012,-0.11,0.23,1.04,-0.32,-5.4,-1.83
0.02,-0.14,0.21,1.03,-5.13,-5.85,-4.26
0.025,-0.11,0.19,1.0,-8.35,0.64,-3.44
0.03,-0.12,0.17,0.97,-8.66,-1.45,-4.82
0.037,-0.11,0.17,0.95,-5.86,-0.06,-5.27
0.042,-0.14,0.2,0.97,-7.47,0.27,-4.89
0.047,-0.12,0.19,0.96,-4.96,-1.3,-6.69
0.051,-0.11,0.2,1.0,-11.05,-4.43,-6.41
0.055,-0.12,0.17,0.92,-3.88,0.95,-6.26
0.06,-0.11,0.17,0.95,-0.32,3.92,-7.27
0.064,-0.12,0.18,0.96,1.36,3.76,-7.15
0.068,-0.12,0.2,0.97,4.44,2.76,-7.04
0.073,-0.1,0.22,1.01,3.27,0.87,-4.73
0.077,-0.12,0.23,1.02,-2.18,2.32,-4.64
0.083,-0.14,0.21,0.97,-4.78,9.07,-6.47
0.089,-0.11,0.2,0.98,-2.95,8.18,-3.59
0.092,-0.14,0.19,0.97,1.48,0.58,-0.47
0.094,-0.13,0.18,0.98,-1.74,1.74,-1.31
0.097,-0.12,0.18,0.99,-5.56,0.6,-0.11
0.099,-0.14,0.17,0.95,-4.12,0.96,-2.09
0.101,-0.1,0.17,0.96,-0.29,1.4,0.17
0.103,-0.1,0.17,0.98,2.96,1.16,2.35
0.104,-0.2,0.16,1.0,-0.2,-3.71,-1.34
0.107,-0.17,0.16,1.0,-4.09,3.71,-5.89
0.109,-0.19,0.16,1.02,-4.11,1.44,-7.62
0.11,-0.16,0.1,0.96,-2.96,-4.69,-11.63
0.113,-0.14,0.17,0.96,0.0,0.69,-9.1
0.115,-0.16,0.17,0.96,3.98,3.71,-7.89
0.117,-0.17,0.19,0.98,5.83,0.92,-10.93
0.118,-0.15,0.22,1.01,5.89,-0.26,-12.61
0.12,-0.14,0.24,1.04,-0.43,0.11,-9.69
0.122,-0.14,0.21,0.98,-2.49,-0.49,-7.36
0.124,-0.16,0.2,0.98,-1.22,-1.91,-5.71
0.126,-0.14,0.17,0.96,1.27,4.05,-11.45
0.128,-0.14,0.2,0.99,2.64,0.56,-11.66
0.13,-0.16,0.21,1.0,2.82,-4.66,-10.38
0.132,-0.14,0.19,0.99,-0.27,-3.54,-10.21
0.134,-0.16,0.18,0.96,-1.77,-3.51,-14.64
0.136,-0.12,0.2,0.95,-1.85,1.47,-14.56
0.138,-0.13,0.19,0.93,1.71,-2.2,-10.18
0.14,-0.13,0.2,0.95,5.4,-3.6,-11.69
0.141,-0.14,0.23,0.98,3.3,-4.6,-6.21
0.143,-0.13,0.23,1.01,-0.46,-4.92,-6.47
0.145,-0.14,0.22,1.02,-6.0,-3.74,-5.92
0.147,-0.15,0.19,0.97,-6.6,-0.53,-2.69
0.149,-0.16,0.15,0.95,-4.0,-0.73,-6.56
0.151,-0.15,0.16,0.95,-0.11,2.79,-4.89
0.153,-0.17,0.17,0.98,5.4,-2.4,-5.45
0.155,-0.13,0.21,0.99,4.32,-1.92,-3.79
0.156,-0.2,0.22,1.06,1.62,-7.68,-3.08
0.158,-0.17,0.19,1.01,-5.68,-3.37,-7.54
0.16,-0.13,0.17,0.98,-5.36,-3.42,-7.01
0.162,-0.14,0.18,0.96,-0.41,-5.54,-3.79
0.164,-0.15,0.18,0.99,0.79,-4.56,-4.81
0.166,-0.14,0.2,0.99,-0.02,-3.5,-5.91
0.168,-0.13,0.21,0.98,-0.64,-6.56,-4.66
0.17,-0.1,0.22,0.97,0.78,-4.06,-2.6
0.172,-0.06,0.24,1.0,-4.7,-4.26,0.79
0.174,-0.11,0.25,1.04,-24.2,-2.9,6.12
0.176,-0.14,0.17,0.98,-28.03,1.66,5.24
0.177,-0.14,0.12,0.92,-27.01,2.0,3.27
0.179,-0.16,0.11,0.92,-9.44,-0.4,-2.37
0.181,-0.13,0.14,0.93,2.17,-2.7,-3.69
0.183,-0.15,0.15,0.98,8.79,-7.56,-5.63
0.185,-0.12,0.19,1.01,6.72,-5.88,-6.7
0.187,-0.14,0.21,1.07,-1.5,-5.91,-7.6
0.189,-0.11,0.2,1.01,-7.63,-7.68,-7.25
0.191,-0.1,0.18,0.98,-7.94,-7.34,-2.38
0.192,-0.1,0.16,0.94,-5.5,-4.44,-0.27
0.194,-0.11,0.16,0.95,-0.98,-7.42,-1.57
0.196,-0.12,0.18,0.99,-0.75,-0.7,0.55
0.198,-0.09,0.2,1.04,-8.29,3.07,1.74
0.2,-0.08,0.19,0.99,-17.02,8.64,5.42
0.202,-0.12,0.14,0.94,-17.31,4.26,7.53
0.204,-0.19,0.11,0.94,-6.21,-1.33,4.61
0.206,-0.15,0.13,0.95,1.31,-2.95,-0.4
0.207,-0.22,0.15,1.02,4.63,-2.26,-1.25
0.209,-0.15,0.17,1.03,4.47,-3.6,-4.21
0.211,-0.15,0.17,1.03,4.49,-3.25,-0.14
0.213,-0.17,0.17,1.04,0.38,-7.16,-2.29
0.215,-0.13,0.18,1.02,-2.5,-5.6,2.18
0.217,-0.18,0.17,1.0,-1.3,-7.13,2.08
0.219,-0.14,0.19,0.97,1.92,-10.21,4.47
0.221,-0.17,0.2,0.99,2.26,-12.17,6.05
0.223,-0.15,0.18,1.01,-2.75,-13.22,1.89
0.224,-0.14,0.17,1.01,-5.85,-7.69,3.69
0.226,-0.16,0.17,1.03,-8.37,-6.66,7.89
0.228,-0.21,0.2,1.06,-12.46,-9.51,16.03
0.23,-0.2,0.16,1.0,-16.73,-14.93,17.71
0.232,-0.27,0.07,0.94,-18.73,-14.96,6.93
0.234,-0.23,0.06,0.87,-13.48,-10.18,-0.85
0.236,-0.23,0.1,0.86,1.97,-11.71,1.79
0.238,-0.25,0.19,0.94,13.88,-22.38,6.32
0.239,-0.25,0.26,0.97,17.56,-21.94,15.71
0.241,-0.22,0.28,1.06,9.56,-21.15,18.02
0.243,-0.25,0.3,1.1,4.89,-25.53,22.92
0.245,-0.2,0.31,1.11,0.9,-29.18,35.86
0.247,-0.25,0.28,1.1,-7.02,-34.11,41.77
0.249,-0.3,0.27,1.03,-13.71,-37.86,37.8
0.251,-0.23,0.27,0.97,-18.67,-35.85,38.0
0.253,-0.25,0.24,0.97,-13.85,-44.0,36.58
0.254,-0.31,0.14,1.03,-4.4,-57.79,23.4
0.256,-0.24,0.15,1.09,-7.18,-60.43,11.62
0.258,-0.17,0.13,1.12,-17.51,-56.11,19.28
0.26,-0.17,0.11,1.06,-20.73,-55.15,24.82
0.262,-0.17,0.05,1.04,-18.09,-68.44,11.89
0.264,-0.06,0.05,1.03,-25.68,-66.41,-5.22
0.266,-0.02,0.04,1.04,-36.43,-55.53,-11.11
0.268,-0.06,0.05,0.99,-31.85,-54.73,-16.0
0.27,-0.07,0.02,0.99,-27.73,-63.79,-25.19
0.272,0.06,0.04,0.98,-27.91,-62.76,-35.37
0.274,0.16,0.07,0.94,-35.04,-54.99,-35.37
0.275,0.06,0.1,0.93,-32.14,-51.34,-35.71
0.277,0.09,0.22,0.91,-26.27,-59.19,-51.02
0.279,0.19,0.37,0.91,-29.65,-52.38,-37.45
0.282,0.37,0.46,1.06,-34.43,-58.23,-33.25
0.284,0.56,0.62,1.17,-62.64,-43.24,1.51
0.285,0.47,0.46,1.03,-127.44,-48.2,29.74
0.287,0.38,0.24,0.59,-156.79,-1.5,17.66
0.289,0.41,0.04,0.71,-133.15,16.47,19.33
0.291,0.45,-0.09,0.68,-97.69,-26.9,2.81
0.293,0.47,-0.12,0.73,-65.04,-60.41,-4.67
0.295,0.57,0.01,0.76,-69.56,-68.26,-15.91
0.297,0.75,0.01,0.75,-77.91,-38.56,-8.76
0.299,0.69,-0.16,0.65,-77.3,-24.6,-8.79
0.301,0.71,-0.21,0.68,-44.06,38.63,-5.27
0.303,0.94,-0.24,0.85,-22.14,70.85,21.02
0.305,0.71,-0.27,0.88,-38.85,146.81,44.27
0.307,0.55,-0.27,0.86,-71.68,239.13,21.95
0.309,0.46,-0.35,0.64,-60.41,278.29,-6.55
0.311,0.44,-0.46,0.64,-5.62,344.15,-9.91
0.313,0.18,-0.45,0.92,10.09,251.92,13.04
0.314,0.0,-0.53,0.93,108.78,336.21,71.47
0.316,-0.24,-0.34,0.88,25.76,97.94,182.29
0.318,-0.03,0.05,1.07,18.5,94.99,152.79
0.32,-0.4,-0.37,1.26,-9.48,6.21,35.28
0.322,-0.36,-0.17,0.93,-1.92,-55.31,-41.86
0.324,-0.07,-0.18,0.78,44.63,5.21,-108.49
0.326,-0.14,-0.25,0.99,26.08,56.61,-104.35
0.328,-0.36,-0.3,0.84,27.21,78.38,-92.08
0.329,-0.5,-0.21,0.83,51.86,49.21,-79.07
0.331,-0.38,-0.46,0.77,75.21,-4.4,-102.18
0.333,-0.2,-0.48,0.76,81.68,-9.82,-106.6
0.335,-0.58,-0.38,0.93,89.69,-42.69,-183.28
0.337,-0.27,-0.22,0.85,37.66,-117.01,-137.19
0.339,-0.14,-0.15,0.83,36.11,-148.43,-107.48
0.341,0.14,-0.17,0.91,94.05,-65.02,-107.15
0.342,0.1,-0.07,1.01,97.62,-17.83,-95.27
0.344,-0.12,-0.04,0.93,90.61,-17.02,-123.36
0.346,-0.01,0.07,1.07,82.56,-19.65,-126.15
0.348,0.1,0.16,1.07,83.92,-72.34,-88.93
0.35,0.1,0.38,1.2,58.02,-138.4,-59.76
0.352,0.31,0.4,1.3,22.14,-110.9,-75.08
0.354,0.17,0.38,1.12,-26.79,-94.99,-122.9
0.356,0.3,0.37,1.26,-49.89,-23.68,-156.58
0.358,0.42,0.2,1.14,-90.38,-15.22,-164.47
0.36,0.23,0.08,1.05,-107.63,-52.17,-139.91
0.361,0.29,-0.08,1.01,-106.06,-92.12,-116.96
0.363,0.6,-0.15,0.91,-152.17,-31.94,-112.38
0.365,0.53,-0.37,0.68,-116.34,-83.15,-87.05
0.367,0.33,-0.52,0.79,-27.05,-67.48,-88.02
0.369,0.31,-0.42,0.76,15.45,-5.86,-111.44
0.371,0.29,-0.37,0.85,41.22,29.92,-122.12
0.373,0.42,-0.26,1.03,44.98,32.05,-137.15
0.374,0.55,-0.03,1.29,-7.82,-5.77,-116.7
0.377,0.42,0.0,1.25,-61.95,-57.88,-79.95
0.378,0.49,-0.03,1.1,-87.34,-99.69,-40.49
0.38,0.47,-0.07,0.9,-106.34,-116.5,-4.09
0.382,0.38,-0.15,0.55,-57.69,-88.35,-57.18
0.384,0.84,-0.21,0.41,-2.87,-67.82,-82.15
0.386,0.69,-0.09,0.74,14.43,69.6,-39.54
0.388,0.49,-0.18,0.65,29.5,108.55,-27.92
0.39,0.11,-0.07,0.89,61.18,42.11,9.37
0.391,0.01,-0.09,1.03,56.5,-18.2,-9.16
0.393,0.16,-0.07,1.14,12.21,-22.52,-40.46
0.395,0.44,-0.14,1.09,-31.88,-27.83,-33.5
0.397,0.55,-0.09,0.97,-69.31,-85.08,26.99
0.399,0.5,-0.27,0.57,-45.36,-54.87,-18.98
0.401,0.56,-0.19,0.77,31.94,-16.2,-21.8
0.403,0.53,-0.14,0.98,38.66,40.61,-10.35
0.404,0.26,-0.21,1.08,15.94,70.35,-41.28
0.406,0.38,-0.18,1.06,16.73,28.6,-33.1
0.408,0.35,-0.17,0.95,16.63,8.0,-20.0
0.41,0.47,-0.09,1.02,24.4,-8.89,-5.13
0.412,0.63,-0.07,1.08,23.92,0.06,17.88
0.414,0.4,-0.06,1.08,30.18,12.56,12.55
0.415,0.37,-0.05,1.09,4.64,8.26,2.63
0.417,0.39,-0.06,0.94,3.89,-7.24,11.56
0.419,0.46,-0.08,0.8,0.6,-15.83,16.79
0.421,0.45,-0.11,0.71,18.58,-16.17,42.47
0.423,0.4,-0.03,0.84,24.85,-17.25,44.15
0.425,0.39,0.03,0.83,22.92,15.59,18.98
0.427,0.36,0.03,1.0,45.51,-2.02,12.06
0.429,0.46,-0.01,1.1,28.92,12.24,18.09
0.431,0.44,-0.05,1.05,13.48,-5.51,38.41
0.433,0.38,-0.09,1.0,1.1,-42.27,57.18
0.435,0.56,-0.12,0.83,-7.47,-42.75,59.16
0.436,0.63,-0.11,0.8,-12.02,-26.15,87.1
0.438,0.54,-0.11,0.94,-50.87,8.98,76.7
0.44,0.35,-0.08,0.98,-23.31,44.34,53.27
0.442,0.31,-0.08,0.99,-20.4,15.37,50.31
0.444,0.4,-0.2,1.01,-52.29,-21.13,91.02
0.446,0.36,-0.27,0.85,-26.06,1.45,23.36
0.448,0.36,-0.16,0.89,31.4,12.29,3.13
0.45,0.23,-0.12,0.96,25.34,3.45,14.26
0.452,0.19,-0.14,1.04,-7.01,-14.24,16.2
0.453,0.26,-0.06,1.07,-8.05,-31.94,16.75
0.455,0.19,-0.12,1.15,-8.53,-12.35,-61.05
0.457,0.34,-0.11,1.05,-7.98,-11.54,-52.09
0.459,0.49,-0.18,0.94,0.81,-11.74,-39.01
0.461,0.52,-0.21,0.88,5.76,-6.63,-10.26
0.463,0.46,-0.22,0.96,2.85,-2.81,15.1
0.465,0.4,-0.22,0.96,-11.39,7.51,22.21
0.467,0.33,-0.19,1.11,-34.58,-10.61,-24.84
0.468,0.44,-0.17,0.92,-23.48,4.38,-29.15
0.47,0.54,-0.08,0.97,-14.81,21.34,-24.05
0.472,0.49,-0.05,0.95,-13.01,19.89,2.67
0.474,0.38,-0.08,1.0,-3.94,7.04,19.27
0.476,0.6,-0.09,0.88,13.6,-57.07,8.9
0.477,0.54,-0.11,1.06,8.5,-40.5,25.19
0.479,0.32,-0.14,0.97,7.44,-12.87,40.87
0.481,-0.32,-0.27,1.19,-19.04,11.15,34.93
0.483,0.33,-0.11,0.86,-19.51,-16.9,31.02
0.485,0.16,-0.14,0.95,-36.34,-57.91,0.98
0.487,0.54,-0.17,0.89,-19.22,-2.02,23.02
0.489,0.39,-0.26,0.87,26.14,35.44,51.69
0.491,0.51,-0.31,0.78,67.33,4.5,61.89
0.493,0.47,-0.13,0.86,67.02,-11.88,53.47
0.494,0.29,-0.24,0.97,49.47,-45.3,54.37
0.497,0.29,-0.21,0.8,59.98,-84.11,36.18
0.499,0.72,-0.26,0.68,81.07,-34.72,-4.05
0.5,0.51,-0.16,0.77,80.58,-34.12,16.63
0.502,0.66,-0.14,0.76,64.47,-13.88,2.56
0.504,0.87,-0.03,0.74,81.22,3.19,76.63
0.506,0.46,0.02,0.98,83.53,53.76,77.48
0.508,-0.02,0.01,1.36,33.22,105.88,30.9
0.509,0.37,-0.06,1.01,43.77,116.0,34.64
0.511,0.44,0.12,1.05,26.58,95.11,-35.44
0.513,0.37,0.08,1.15,-15.89,87.36,5.71
0.515,0.31,0.03,1.01,-10.7,61.18,17.62
0.517,0.2,-0.11,1.02,0.23,55.53,2.79
0.519,0.07,-0.04,1.11,-5.11,-0.26,-2.67
0.521,0.09,-0.01,1.11,-4.03,-35.59,17.47
0.523,0.14,-0.03,0.95,1.69,-53.73,27.82
0.524,0.27,-0.08,0.91,-0.34,-51.13,21.04
0.526,0.49,-0.07,0.84,-3.68,-17.95,14.87
0.528,0.33,-0.03,0.88,-2.06,7.95,33.21
0.53,0.21,-0.08,0.9,6.67,7.68,36.93
0.532,0.29,-0.05,0.92,13.59,5.3,24.61
0.534,0.24,0.0,1.03,17.47,21.56,48.34
0.536,0.26,-0.11,0.95,25.44,17.16,58.09
0.537,0.16,-0.08,0.98,22.99,11.94,46.18
0.539,0.29,-0.03,1.05,24.08,5.98,35.51
0.541,0.22,0.05,1.14,17.6,22.37,22.12
0.543,0.17,0.06,1.17,9.25,17.59,18.76
0.545,0.17,-0.0,1.13,1.4,-1.77,14.9
0.547,0.3,-0.03,1.06,-4.34,-8.96,17.45
0.549,0.3,-0.02,0.98,-11.63,10.7,20.49
0.551,0.24,-0.05,0.98,-7.48,10.7,15.31
0.553,0.21,-0.07,0.96,-7.36,4.99,6.87
0.555,0.26,-0.09,0.95,-7.47,20.89,-0.17
0.557,0.28,-0.1,0.9,1.57,7.19,0.31
0.558,0.32,-0.11,0.89,8.46,-2.18,9.79
0.56,0.34,-0.13,0.86,17.34,2.76,17.11
0.562,0.34,-0.11,0.85,28.9,3.3,20.24
0.564,0.52,-0.04,0.86,26.21,39.22,22.79
0.566,0.13,-0.02,1.0,22.64,38.0,28.89
0.568,0.12,0.01,1.01,17.42,25.57,26.17
0.569,0.07,0.01,1.03,15.54,28.17,11.3
0.571,0.11,0.05,1.04,12.95,25.05,5.37
0.573,0.06,0.04,1.04,8.58,18.98,4.21
0.575,0.03,0.0,1.03,8.7,10.08,7.85
0.577,0.06,-0.03,1.0,10.49,-16.85,6.9
0.579,0.15,0.0,1.01,14.43,-14.76,2.49
0.581,0.14,0.07,1.16,0.2,-7.19,-4.58
0.583,0.09,0.09,1.1,-9.88,-15.45,-8.32
0.584,0.11,0.05,1.07,-15.83,-14.38,-13.22
0.586,0.26,-0.02,0.95,-13.5,-21.1,-10.64
0.588,0.31,-0.07,0.89,-3.66,-14.05,2.44
0.59,0.3,-0.1,0.86,9.13,-9.62,19.89
0.592,0.2,-0.09,0.89,16.93,-12.78,35.19
0.594,0.14,-0.09,0.8,31.85,-24.55,38.34
0.595,0.2,-0.15,0.77,42.9,-29.39,36.41
0.597,0.22,-0.24,0.81,47.82,-24.08,38.61
0.599,0.18,-0.29,0.83,16.98,-11.37,20.26
0.601,0.12,-0.41,0.73,15.69,-24.53,19.27
0.603,0.17,-0.47,0.47,20.49,-20.98,15.56
0.605,0.14,-0.52,0.39,31.63,-31.91,25.54
0.607,0.12,-0.55,0.39,56.38,-64.2,47.45
0.609,-0.03,-0.26,0.58,49.92,-88.9,79.62
0.611,-0.27,-0.15,0.66,50.27,-63.53,-20.35
0.613,0.19,0.2,0.72,22.95,-16.6,-142.18
0.615,1.12,0.59,0.84,22.96,55.11,-94.31
0.616,0.92,0.83,1.45,66.85,110.34,4.76
0.618,0.61,0.9,1.64,55.82,99.04,-21.5
0.62,0.48,0.75,1.67,0.31,107.5,-32.9
0.622,0.38,0.77,1.76,-24.15,78.85,-5.22
0.624,-0.87,1.14,1.85,48.0,80.03,17.54
0.626,-0.43,0.44,1.4,-110.75,1.77,-38.58
0.628,0.17,0.22,1.1,-50.35,-8.73,-22.58
0.63,0.19,0.13,0.98,-51.94,-7.69,-6.89
0.632,0.21,0.21,0.93,-28.67,-15.1,11.11
0.634,0.11,0.33,1.26,-30.31,-57.77,36.08
0.635,0.21,0.13,0.94,-37.62,-45.73,57.51
0.637,-0.12,0.09,0.8,-27.56,-72.18,51.66
0.639,0.39,0.19,0.94,-8.0,-58.02,16.61
0.641,0.76,0.09,0.83,-11.13,16.82,10.92
0.643,0.67,0.16,0.88,1.18,102.08,39.34
0.645,-0.93,0.69,1.37,-9.65,-11.36,-0.31
0.647,-0.07,0.48,1.12,-90.66,-61.79,-62.31
0.648,0.42,0.03,0.82,-77.94,-43.45,-16.55
0.65,0.6,-0.06,0.88,-55.53,20.66,6.31
0.652,0.28,-0.07,1.04,-57.19,60.7,-0.69
0.654,0.12,-0.08,1.0,-51.11,70.69,-12.82
0.656,0.01,-0.17,0.79,-25.98,38.14,-17.79
0.658,0.04,-0.1,0.89,-5.57,5.05,-13.16
0.66,0.05,-0.08,0.87,32.5,-21.88,-21.82
0.662,0.28,0.1,1.3,17.98,-10.99,-24.5
0.664,0.42,-0.04,1.16,-6.92,38.4,-15.31
0.665,0.13,-0.01,1.03,-28.72,46.52,-20.79
0.667,0.07,-0.19,0.71,10.84,81.04,-11.16
0.669,-0.28,-0.02,1.04,-0.43,-19.73,-27.25
0.671,0.13,-0.02,1.07,10.15,-14.34,-21.01
0.673,0.25,0.05,1.17,-15.5,-13.65,-20.92
0.675,0.2,-0.1,0.99,-17.05,-0.2,-18.24
0.677,-0.02,-0.11,0.86,-1.22,-13.92,-9.24
0.679,0.03,-0.01,0.98,10.11,-25.53,-5.98
0.681,0.17,0.06,1.2,10.31,6.69,17.92
0.682,0.14,-0.0,1.0,-17.63,-7.1,1.97
0.684,0.05,-0.06,0.95,-15.65,-24.11,-2.0
0.686,0.06,0.03,0.98,-8.69,-15.94,-3.56
0.688,0.12,-0.05,0.99,3.02,-17.16,-7.6
0.69,0.21,-0.02,0.99,0.79,-16.41,-7.33
0.692,0.18,-0.01,1.07,-9.19,-15.6,-6.93
0.694,0.15,-0.01,1.05,-9.42,-12.98,-2.81
0.695,0.12,-0.05,0.99,-9.54,-21.37,-5.02
0.697,0.14,-0.07,0.95,-2.64,-25.39,1.71
0.699,0.08,0.05,1.08,-6.47,-21.66,5.56
0.701,0.29,0.23,1.2,-25.33,-13.65,-7.28
0.703,0.54,0.28,1.37,-66.72,34.09,-12.14
0.705,-0.1,0.22,1.28,-92.56,54.43,-12.99
0.707,-0.24,0.15,1.1,-83.76,10.0,-15.48
0.709,-0.23,0.15,1.02,-56.76,-64.4,0.73
0.711,-0.01,0.04,1.13,-35.88,-111.66,19.42
0.712,0.18,-0.0,1.14,-27.74,-98.32,19.85
0.714,0.24,-0.04,1.23,-32.32,-70.52,5.25
0.716,0.23,-0.1,1.12,-41.66,-36.06,-1.82
0.718,0.19,-0.19,1.02,-33.94,-33.5,-9.11
0.72,0.48,0.01,1.08,-16.12,10.64,21.19
0.722,0.18,-0.03,1.26,-12.82,3.95,22.41
0.723,0.44,-0.07,1.24,-27.73,13.21,13.56
0.725,0.33,-0.17,1.13,-33.62,39.33,12.11
0.727,0.24,-0.27,0.9,-14.96,47.69,8.03
0.729,0.09,-0.28,0.91,9.18,9.86,6.09
0.731,-0.0,-0.23,0.97,11.82,-48.85,-22.93
0.733,0.24,-0.15,0.92,1.25,-51.05,-48.17
0.735,0.44,0.02,0.9,-18.18,7.11,-33.33
0.737,0.28,-0.06,0.85,-12.78,26.05,-20.52
0.738,0.35,-0.09,0.83,-15.44,52.82,-30.05
0.74,0.22,-0.21,0.72,-13.92,58.53,-26.67
0.742,0.09,-0.32,0.61,1.21,18.78,-19.3
0.744,0.15,-0.44,0.48,22.9,-25.19,-10.61
0.746,0.33,-0.48,0.51,30.52,-32.89,-27.22
0.748,0.31,-0.27,0.71,36.31,36.98,-19.79
0.75,0.14,-0.16,0.94,2.69,38.66,-48.0
0.752,0.07,-0.16,0.92,0.76,35.39,-59.34
0.753,0.02,-0.21,0.94,-6.08,-28.82,-81.28
0.755,0.25,-0.25,0.94,-5.21,-56.55,-84.05
0.757,0.36,-0.25,0.95,-8.17,-63.27,-79.94
0.759,0.61,-0.21,1.01,-31.24,-48.5,-69.91
0.761,0.48,-0.18,1.08,-61.57,-51.54,-62.95
0.763,0.52,-0.23,0.96,-86.66,-50.43,-88.43
0.765,0.64,-0.3,0.81,-94.09,-24.78,-101.21
0.767,0.6,-0.38,0.71,-74.29,-50.87,-79.83
0.769,0.48,-0.42,0.75,-80.26,-91.94,-59.3
0.771,0.57,-0.44,0.79,-105.92,-124.12,-44.08
0.772,0.67,-0.36,0.71,-119.01,-44.64,-85.11
0.774,0.61,-0.33,0.78,-101.1,-29.36,-67.66
0.776,0.61,-0.38,0.71,-62.2,4.89,-71.08
0.778,0.73,-0.45,0.68,-37.08,40.18,-65.16
0.78,0.77,-0.48,0.71,-19.45,49.69,-29.07
0.782,0.55,-0.5,0.76,-3.42,26.61,10.67
0.784,0.33,-0.45,0.84,-14.43,3.73,19.47
0.786,0.3,-0.45,0.79,-33.47,32.06,-64.78
0.787,0.43,-0.41,0.85,-14.44,30.53,-92.96
0.789,0.48,-0.4,0.88,7.77,38.89,-81.69
0.791,0.5,-0.43,0.85,20.84,9.34,-72.73
0.793,0.57,-0.23,0.98,24.98,1.11,-64.7
0.795,0.68,-0.09,0.97,15.27,62.14,-75.89
0.796,0.55,-0.18,1.12,5.25,74.44,-69.01
0.798,0.44,-0.16,0.97,-7.05,89.07,-69.25
0.8,0.31,-0.14,0.92,-8.24,90.12,-85.54
0.802,0.42,-0.12,0.93,-6.61,85.24,-74.49
0.804,0.32,-0.13,1.02,-4.27,47.83,-39.85
0.806,0.49,-0.16,0.87,-5.21,9.33,-24.26
0.808,0.43,-0.2,0.77,-4.46,4.98,-19.68
0.809,0.51,-0.18,0.76,-6.61,21.53,-22.63
0.811,0.46,-0.22,0.74,-3.85,32.58,-18.4
0.813,0.53,-0.2,0.81,-0.21,26.93,-8.14
0.825,0.44,-0.19,0.84,-0.53,30.78,0.66
0.827,0.39,-0.23,0.82,5.98,30.56,3.92
0.829,0.36,-0.25,0.86,14.29,24.41,4.93
0.831,0.31,-0.24,0.92,21.95,16.0,6.44
0.833,0.23,-0.22,1.06,24.17,11.98,-0.21
0.835,0.22,-0.14,1.12,15.1,18.69,-12.21
0.837,0.28,-0.08,1.24,3.28,-3.24,-15.68
0.839,0.35,-0.12,1.14,-6.63,-16.92,-12.93
0.841,0.43,-0.13,1.01,-5.73,-21.28,-8.08
0.843,0.43,-0.17,0.92,2.12,-12.37,-10.09
0.845,0.44,-0.22,0.85,10.75,-13.18,-7.07
0.847,0.4,-0.25,0.81,24.63,-22.53,-1.73
0.849,0.38,-0.23,0.79,34.43,-24.75,0.69
0.85,0.45,-0.19,0.83,33.97,-7.42,-1.48
0.852,0.36,-0.14,0.91,19.47,6.24,-3.25
0.854,0.39,-0.12,0.94,13.6,5.85,-6.96
0.856,0.41,-0.12,0.93,6.2,3.3,-5.73
0.858,0.38,-0.12,0.93,7.18,-2.47,-3.37
0.86,0.28,-0.12,0.95,8.6,-8.63,-6.11
0.862,0.2,-0.12,0.96,8.95,-19.22,-25.63
0.864,0.37,-0.1,0.95,7.27,-30.38,-31.74
0.866,0.44,-0.14,0.9,5.16,-27.69,-31.63
0.867,0.47,-0.17,0.87,8.44,-25.6,-34.11
0.869,0.47,-0.18,0.89,12.29,-33.15,-41.92
0.871,0.61,-0.11,0.93,9.28,-26.93,-53.77
0.873,0.77,0.0,0.97,1.56,-10.27,-42.23
0.875,0.79,0.05,0.9,-4.0,1.47,-29.25
0.877,0.7,0.06,0.88,-2.69,5.54,-22.32
0.879,0.71,0.01,0.86,3.65,-16.17,-16.14
0.881,0.76,-0.01,0.81,13.74,-6.89,-0.31
0.883,0.67,0.04,0.78,26.98,-9.66,12.46
0.884,0.58,0.04,0.84,32.95,-3.42,18.64
0.886,0.28,-0.07,0.92,47.65,2.37,20.38
0.888,0.52,0.02,0.9,30.56,4.09,14.9
0.89,0.52,0.04,0.89,38.66,-5.15,20.89
0.892,0.59,0.11,0.89,42.27,-9.13,24.67
0.894,0.68,0.14,0.92,42.7,-12.49,34.18
0.896,0.64,0.18,0.84,36.15,-5.13,45.83
0.898,0.6,0.15,0.91,33.63,-12.99,45.68
0.9,0.7,0.12,0.85,34.49,-1.18,47.8
0.901,0.57,0.16,0.98,35.19,4.09,52.06
0.903,0.51,0.17,0.97,30.11,4.9,55.76
0.905,0.58,0.14,1.04,25.48,13.39,63.33
0.907,0.44,0.12,0.98,24.38,13.08,61.79
0.909,0.45,0.09,0.96,23.42,6.61,56.64
0.91,0.49,0.1,0.94,24.79,5.08,57.82
0.912,0.59,0.13,0.89,19.6,15.83,63.36
0.914,0.56,0.1,0.83,20.29,29.54,64.69
0.916,0.44,0.12,0.91,24.73,28.23,73.19
0.918,0.41,0.08,0.96,26.02,28.44,72.41
0.92,0.33,0.08,1.02,25.45,23.27,65.01
0.922,0.39,0.13,1.01,23.68,15.5,65.47
0.923,0.42,0.16,1.01,15.11,13.82,64.55
0.925,0.46,0.13,0.92,4.72,25.6,62.44
0.927,0.42,0.06,0.84,10.75,37.31,63.95
0.929,0.4,0.02,0.79,16.66,36.67,66.96
0.931,0.37,0.01,0.77,25.85,46.12,61.31
0.933,0.35,0.06,0.88,17.28,47.22,57.95
0.935,0.37,0.1,0.88,19.05,56.82,55.37
0.936,0.31,0.15,0.9,13.22,66.75,56.6
0.938,0.23,0.1,0.96,14.31,51.82,50.24
0.94,0.31,0.2,0.91,18.38,48.12,46.18
0.942,0.28,0.24,1.03,22.61,48.55,48.24
0.944,0.29,0.23,1.04,13.82,39.25,53.05
0.945,0.33,0.19,0.94,1.95,37.22,61.39
0.963,0.14,0.13,1.04,0.72,28.11,64.82
0.982,0.03,0.17,1.02,0.23,20.18,52.5
1.0,0.14,0.19,1.05,-4.78,16.03,50.56
1.024,0.19,0.18,1.06,-4.24,12.85,56.21
1.042,0.26,0.18,1.01,-6.14,21.22,65.08
1.06,0.13,0.1,0.91,1.28,23.04,72.23
1.084,0.08,0.08,0.91,18.41,7.98,67.95
1.103,0.04,0.07,0.98,17.76,1.66,61.91
1.121,0.02,0.09,1.05,20.73,2.96,56.43
1.145,0.05,0.14,1.04,23.62,14.27,54.18
1.163,0.1,0.17,1.07,26.87,15.47,54.34
1.182,0.05,0.17,1.1,25.86,0.75,54.61
1.2,0.15,0.19,1.08,13.62,-6.18,57.74
1.224,0.11,0.14,1.03,-0.61,-20.15,55.98
1.242,0.02,0.17,0.97,-0.67,-22.15,55.4
1.261,0.03,0.19,1.05,8.96,-23.8,55.22
1.286,0.2,0.24,1.04,12.4,-1.04,53.66
1.302,0.2,0.2,1.06,-1.25,1.94,56.85
1.32,0.22,0.14,1.03,-21.45,17.53,54.69
1.344,0.1,0.13,0.94,-13.82,23.53,54.7
1.363,0.09,0.07,0.92,4.47,15.62,50.43
1.381,0.18,0.16,1.03,-1.27,22.56,59.22
1.404,0.15,0.18,1.06,-19.76,31.15,58.76
1.422,0.04,0.12,1.0,-32.63,48.99,56.75
1.441,0.16,0.16,0.99,-27.82,43.83,67.36
1.464,0.08,0.17,1.02,-23.13,31.83,76.12
1.483,0.04,0.08,1.04,-26.56,43.07,70.96
1.511,0.03,0.07,1.06,-31.24,48.17,64.49
1.524,-0.1,-0.02,1.07,-33.07,24.6,72.63
1.543,-0.08,0.01,1.04,-14.37,9.3,73.83
1.562,-0.04,-0.0,0.91,-4.41,1.53,76.44
1.584,-0.04,0.01,0.94,3.53,4.17,66.41
1.603,0.02,0.05,1.01,0.31,9.4,65.8
1.621,-0.01,0.02,1.05,-6.5,-31.68,72.52
1.645,0.03,0.06,0.79,16.44,-46.0,102.73
1.663,-0.06,0.03,0.61,61.37,-58.47,112.56
1.682,-0.11,0.05,1.03,69.89,-33.86,87.18
1.704,-0.13,0.13,1.07,18.29,-7.51,63.97
1.723,0.0,0.1,0.91,-25.71,23.3,47.91
1.741,-0.34,0.11,0.92,-24.6,7.54,49.5
1.764,-0.14,0.1,0.95,35.08,-45.02,51.83
1.783,-0.2,0.12,0.92,88.72,-74.87,72.06
1.801,-0.08,0.02,1.04,100.85,-77.42,73.53
1.824,-0.21,-0.03,1.14,73.08,-67.8,70.32
1.842,-0.13,-0.04,1.21,23.3,-29.11,50.12
1.86,-0.2,-0.05,1.3,-38.34,12.84,29.16
1.884,-0.08,-0.0,1.08,-73.5,27.68,19.31
1.902,0.02,0.03,0.96,-72.27,20.85,33.85
1.921,-0.23,-0.09,1.01,-47.04,6.17,31.76
1.944,-0.1,-0.03,0.95,-26.63,-0.34,26.66
1.962,0.12,-0.06,0.92,-12.7,-15.5,30.06
1.981,0.01,-0.04,1.03,-4.05,-15.65,30.64
2.003,0.06,-0.0,0.99,2.43,0.11,36.76
2.022,-0.08,-0.1,1.09,-9.83,22.06,13.11
2.041,0.1,-0.12,1.01,-16.75,38.72,4.84
2.063,-0.02,-0.09,1.02,-18.37,45.65,1.02
2.082,0.07,-0.07,0.96,-7.85,33.92,-2.03
2.101,0.03,-0.04,0.95,1.34,20.93,1.73
2.124,-0.01,-0.06,1.02,6.11,13.53,-1.34
2.142,0.1,-0.06,0.98,8.17,7.1,-6.34
2.161,0.04,-0.05,1.03,2.09,15.42,-4.46
2.184,0.08,-0.05,1.04,-2.06,8.46,-6.82
2.202,0.01,-0.05,1.03,-4.98,14.46,-4.47
2.221,-0.02,-0.05,1.1,-16.96,-0.44,-18.61
2.244,0.12,-0.05,1.06,-14.35,3.69,-7.77
2.262,0.06,-0.03,1.09,-19.91,15.28,-7.62
2.281,0.11,-0.05,1.02,-11.91,-9.51,-9.1
2.304,0.02,-0.09,0.98,-4.9,-8.35,-4.12
2.322,-0.01,-0.09,1.03,-7.51,-10.23,-14.23
2.341,0.13,-0.04,0.93,-3.47,-6.84,-12.08
2.364,0.06,-0.05,1.05,-7.65,-9.28,-12.11
2.381,0.14,-0.03,0.99,-9.98,-6.99,-8.05
2.4,0.04,-0.07,1.01,-10.63,-1.66,-13.65
2.423,0.18,-0.06,0.98,-7.34,6.27,-11.36
2.442,0.02,-0.06,1.03,-4.7,11.59,-12.99
2.46,0.07,-0.09,1.06,-2.52,-1.59,-26.99
2.483,0.18,-0.06,1.0,-2.35,2.95,-17.07
2.501,0.1,-0.06,1.0,-1.83,6.23,-12.11
2.529,0.12,-0.06,1.0,3.66,6.7,-11.94
2.543,0.07,-0.07,1.03,4.14,5.3,-10.64
2.562,0.0,-0.09,1.04,2.27,3.34,-15.22
2.581,0.07,-0.08,1.03,-0.84,-1.89,-20.9
2.604,0.08,-0.06,1.05,-3.44,-2.35,-19.33
2.622,0.08,-0.06,1.01,-4.95,4.56,-17.83
2.642,0.11,-0.04,0.99,-3.01,5.39,-16.7
2.664,0.04,-0.06,0.99,1.11,0.2,-22.29
2.682,0.1,-0.04,1.02,1.65,0.52,-20.58
2.702,0.1,-0.03,1.02,-1.73,0.81,-16.82
2.724,0.11,-0.03,1.0,0.98,-2.06,-14.99
2.742,0.08,-0.05,1.01,0.06,1.45,-14.87
2.761,0.09,-0.03,1.0,-0.7,4.08,-12.15
2.784,0.09,-0.05,1.0,-0.44,7.51,-10.85
2.803,0.04,-0.06,1.03,-1.85,4.73,-13.04
2.821,0.09,-0.04,1.0,1.54,4.34,-13.04
2.844,0.1,-0.03,1.04,0.9,0.5,-11.73
2.863,0.07,-0.03,1.03,-0.9,1.02,-8.84
2.882,0.07,-0.04,1.04,-2.34,-1.25,-10.85
2.904,0.09,-0.03,1.0,-2.29,7.82,-6.92
2.923,0.05,-0.05,1.06,-6.2,9.88,-8.31
2.942,-0.02,-0.05,1.04,-8.79,3.76,-10.31
2.964,0.01,-0.05,1.01,-5.02,-1.37,-14.93
2.983,0.07,-0.07,1.04,-4.05,-2.21,-13.13
3.002,0.09,-0.05,1.01,-3.42,-3.71,-9.77
3.024,0.06,-0.05,1.03,-3.65,-4.14,-9.28
3.043,0.05,-0.05,1.03,-5.16,-5.97,-10.85
3.062,0.07,-0.05,1.03,-6.44,-4.23,-10.11
3.084,0.11,-0.06,1.01,-9.01,-2.05,-5.92
3.103,0.07,-0.05,0.98,-7.69,-3.5,-4.08
3.122,0.09,-0.07,0.98,-7.5,-0.89,-2.4
3.144,0.04,-0.07,0.98,-6.02,-2.27,-3.25
3.163,0.06,-0.07,0.98,-7.15,-1.3,-5.88
3.182,0.08,-0.08,1.0,-2.6,1.39,-2.69
3.204,0.04,-0.08,1.04,-5.3,1.04,-2.21
3.223,0.04,-0.08,1.07,-10.14,-3.34,-4.81
3.241,0.1,-0.08,1.04,-11.73,-4.69,-4.47
3.264,0.04,-0.08,1.01,-4.17,1.77,-2.26
3.283,0.05,-0.09,1.01,1.3,4.92,-4.93
3.301,0.06,-0.09,1.0,2.87,6.63,-3.44
3.32,0.04,-0.1,1.02,0.89,0.92,-6.08
3.344,0.04,-0.09,1.02,0.64,-1.63,-6.87
3.363,0.06,-0.07,0.99,1.56,-2.38,-7.68
3.381,0.08,-0.09,0.98,6.27,0.95,-8.46
3.404,0.07,-0.07,1.0,9.68,6.64,-6.5
3.423,0.03,-0.05,1.02,8.2,4.14,-7.24
3.442,0.1,-0.05,1.01,8.78,1.22,-4.78
3.464,0.01,-0.07,1.07,5.63,-3.73,-10.67
3.483,0.11,-0.03,1.03,1.91,-1.28,-4.99
3.501,0.03,-0.03,1.03,-2.32,1.45,-3.27
3.524,0.13,-0.05,0.98,-2.55,-2.67,-3.19
3.547,0.07,-0.06,0.98,-1.24,4.31,1.4
3.562,0.01,-0.05,1.02,-1.74,2.89,-2.49
3.581,0.09,-0.04,0.98,1.95,-3.57,-3.05
3.603,0.09,-0.05,1.02,1.25,4.44,2.75
3.621,0.05,-0.07,1.02,-0.44,7.4,2.63
3.645,-0.01,-0.08,1.05,-0.89,8.47,-2.02
3.663,0.03,-0.04,1.04,6.37,-5.34,-8.73
3.682,0.06,-0.04,1.04,6.43,-4.29,-2.98
3.7,0.05,-0.04,1.09,0.75,-7.08,-4.03
3.724,0.06,-0.05,1.07,-7.6,-4.66,-1.16
3.742,0.04,-0.04,1.04,-12.11,-6.35,-2.15
3.761,0.07,-0.04,1.02,-9.88,-5.6,-0.09
3.784,0.05,-0.07,1.01,-8.4,-4.43,-1.89
3.802,0.05,-0.08,1.02,-8.5,-1.63,-2.89
3.821,0.06,-0.07,1.02,-7.39,-0.89,-3.85
3.843,0.04,-0.07,1.01,-6.72,-2.18,-5.8
3.862,0.06,-0.06,1.02,-4.58,-3.66,-4.38
3.881,0.06,-0.06,1.01,-6.21,-5.34,-7.45
3.904,0.08,-0.05,0.98,-8.61,-2.5,-3.83
3.922,0.06,-0.07,0.98,-9.82,0.35,-5.25
3.941,0.08,-0.07,0.98,-7.62,0.93,-4.49
3.964,0.04,-0.08,0.98,-4.38,2.09,-3.48
3.982,0.07,-0.07,0.99,-0.79,-2.47,-7.85
