timestamp,acce_x,acce_y,acce_z,gyro_x,gyro_y,gyro_z
0.009,0.0,-0.13,1.04,-1.62,2.99,-2.79
0.016,-0.03,-0.14,1.01,-4.37,4.34,2.84
0.021,-0.06,-0.17,1.03,-4.53,-0.7,-5.6
0.026,0.01,-0.16,0.99,-1.1,-1.4,-1.01
0.03,-0.07,-0.18,0.97,3.31,-2.14,-5.54
0.034,0.02,-0.15,0.97,5.18,-2.92,-5.6
0.039,-0.02,-0.15,0.98,3.56,0.84,-4.43
0.043,0.0,-0.14,0.99,2.55,0.26,-3.74
0.048,-0.03,-0.14,0.99,1.79,-0.38,-5.44
0.053,0.02,-0.14,0.98,4.55,0.27,-4.14
0.057,-0.03,-0.13,1.03,0.76,-0.06,-2.79
0.062,-0.01,-0.12,1.01,-1.94,0.5,-3.88
0.066,-0.01,-0.13,1.02,-4.2,1.66,-1.53
0.071,-0.01,-0.12,0.99,-4.56,1.74,-1.28
0.075,-0.03,-0.13,0.97,-4.64,0.6,-2.2
0.079,-0.0,-0.15,0.94,-3.31,5.1,-1.53
0.084,-0.08,-0.14,0.97,0.84,0.35,0.79
0.088,-0.07,-0.13,1.01,5.25,-4.72,-6.12
0.094,-0.02,-0.11,1.03,3.94,-6.73,0.64
0.098,-0.04,-0.08,1.1,-4.31,-6.75,7.04
0.103,-0.1,-0.08,1.07,-5.85,-8.38,11.39
0.107,-0.11,-0.05,1.03,-6.78,-10.26,8.52
0.11,-0.08,-0.03,1.03,-3.8,-14.89,11.3
0.113,-0.1,-0.0,0.99,1.37,-13.3,16.76
0.116,-0.19,0.01,1.05,6.14,-28.76,19.47
0.118,-0.17,0.03,1.05,6.92,-32.72,20.73
0.12,-0.13,0.03,1.03,3.77,-40.46,23.24
0.122,-0.05,0.01,0.97,-1.5,-28.56,25.98
0.124,-0.2,0.05,1.06,-4.0,-26.27,24.64
0.125,-0.13,0.06,1.05,2.7,-36.69,21.5
0.127,-0.08,0.07,1.15,1.4,-36.98,32.32
0.129,-0.11,0.04,1.11,-3.19,-37.53,35.59
0.131,-0.2,-0.03,1.1,0.64,-34.23,33.95
0.133,-0.23,-0.05,1.06,-12.63,-30.73,33.18
0.135,-0.18,-0.15,0.97,-2.43,-26.17,14.32
0.137,-0.1,-0.2,1.03,-8.75,-18.46,11.28
0.139,-0.2,-0.18,1.02,-4.46,-19.16,6.11
0.141,-0.19,-0.15,1.08,-3.08,-24.53,3.97
0.142,-0.12,-0.15,0.99,1.57,-28.52,2.4
0.144,-0.17,-0.21,1.02,11.57,-38.7,-8.18
0.146,-0.08,-0.16,0.94,20.14,-42.32,-13.44
0.149,-0.14,-0.15,0.91,25.27,-49.51,-21.15
0.15,-0.17,-0.15,0.93,30.12,-53.88,-43.28
0.152,-0.04,-0.13,0.93,24.4,-52.85,-60.64
0.154,0.14,-0.03,0.97,13.48,-43.27,-65.22
0.156,0.17,0.07,0.93,1.4,-21.97,-52.69
0.158,0.1,0.01,0.86,2.47,-24.44,-49.4
0.159,0.1,-0.03,0.9,9.79,-26.06,-54.47
0.161,0.09,0.03,0.88,15.13,-34.67,-58.64
0.163,0.11,0.09,0.92,14.17,-56.66,-68.6
0.165,0.22,0.09,0.95,3.94,-67.53,-64.41
0.167,0.19,0.05,1.0,0.73,-59.18,-68.63
0.169,0.24,0.12,0.99,-16.15,-52.53,-80.96
0.171,0.47,0.21,0.91,-27.01,-52.66,-73.24
0.173,0.47,0.17,0.84,-31.92,-38.03,-59.21
0.175,0.37,0.06,0.79,-22.56,-27.94,-56.02
0.177,0.39,0.04,0.83,-19.08,-30.67,-67.08
0.178,0.34,0.16,0.84,-24.09,-25.01,-82.08
0.18,0.43,0.14,0.85,-19.15,-48.98,-94.52
0.182,0.65,0.09,0.78,-24.98,-29.89,-87.48
0.184,0.58,-0.04,0.79,-14.47,-12.53,-88.76
0.186,0.6,-0.04,0.91,-18.46,12.29,-94.11
0.188,0.71,0.04,0.97,-7.82,25.19,-74.34
0.19,0.65,0.1,0.94,-10.32,5.21,-62.03
0.191,0.57,0.1,0.97,-10.52,-11.02,-55.05
0.193,0.53,0.09,0.9,-10.9,-30.64,-64.75
0.195,0.58,0.11,0.93,-16.12,-30.27,-79.47
0.197,0.62,0.13,0.96,-23.51,-35.51,-91.82
0.199,0.63,0.11,1.06,-54.46,-46.26,-93.74
0.201,0.67,0.1,0.97,-47.8,-28.18,-90.92
0.203,0.57,0.14,0.94,-43.45,-45.57,-88.27
0.205,0.6,0.14,0.91,-33.89,-53.97,-86.95
0.207,0.62,0.18,0.98,-23.5,-70.99,-80.99
0.208,0.63,0.2,1.09,-40.98,-65.73,-78.15
0.21,0.59,0.2,1.05,-70.37,-62.72,-81.65
0.212,0.66,0.2,0.93,-78.98,-56.43,-85.13
0.214,0.73,0.17,0.73,-83.08,-43.92,-84.9
0.216,0.72,0.14,0.62,-75.79,-30.27,-87.71
0.218,0.71,0.12,0.61,-66.32,-17.83,-93.48
0.22,0.79,0.15,0.64,-62.23,-10.02,-98.03
0.221,0.84,0.15,0.64,-54.47,-7.36,-86.73
0.223,0.83,0.14,0.68,-41.82,-8.44,-68.76
0.225,0.76,0.13,0.71,-43.18,-5.57,-58.75
0.227,0.75,0.12,0.74,-50.87,20.23,-70.11
0.229,0.75,0.14,0.64,-54.7,37.19,-79.69
0.231,0.78,0.11,0.63,-47.13,24.21,-79.07
0.233,0.79,0.08,0.56,-31.24,23.79,-62.46
0.235,0.63,0.08,0.65,-22.98,20.02,-64.72
0.236,0.63,0.06,0.84,-30.49,10.7,-67.37
0.238,0.63,0.07,0.92,-62.66,1.21,-70.34
0.24,0.66,0.08,0.76,-75.68,14.89,-74.53
0.242,0.67,0.16,0.9,-74.27,39.42,-70.11
0.244,0.62,0.07,0.83,-74.09,53.11,-68.87
0.245,0.62,0.01,0.82,-44.99,36.9,-51.77
0.247,0.55,-0.04,0.96,-50.5,-41.74,-34.75
0.249,0.48,0.0,1.02,-62.21,-87.28,-20.99
0.251,0.54,0.0,0.86,-94.84,-53.53,-20.58
0.253,0.24,-0.05,0.96,-59.47,-64.17,-41.8
0.255,0.55,-0.06,0.71,-24.06,-25.16,-53.44
0.257,0.63,-0.04,0.59,-15.82,14.21,-50.06
0.259,0.66,-0.06,0.55,-9.73,28.27,-47.47
0.261,0.7,-0.04,0.59,13.5,34.96,-39.53
0.263,0.68,0.01,0.7,24.26,25.44,-38.6
0.265,0.71,0.08,0.71,31.07,45.42,-38.9
0.267,0.74,0.1,0.81,28.15,70.63,-30.89
0.269,0.7,0.09,0.85,24.64,83.82,-22.76
0.271,0.61,0.12,1.03,15.31,84.27,-12.29
0.273,0.32,0.11,1.11,2.81,53.71,-21.02
0.274,0.36,0.11,1.06,6.4,19.07,-33.56
0.276,0.48,0.1,0.91,3.89,19.53,-32.44
0.278,0.5,0.08,0.98,-2.93,29.76,-29.45
0.28,0.56,0.07,0.98,-24.44,4.27,-24.73
0.282,0.5,0.09,1.03,-28.14,-26.03,-19.74
0.284,0.59,0.07,0.82,-27.68,20.41,-12.37
0.286,0.78,-0.01,0.81,-8.98,20.34,1.59
0.287,0.53,0.17,1.0,-47.63,19.16,24.32
0.289,0.45,0.06,0.87,-34.31,29.51,27.69
0.291,0.39,0.02,0.9,-20.11,23.6,20.46
0.293,0.36,0.02,0.97,-34.69,16.43,11.79
0.295,0.5,0.04,0.82,-32.63,25.36,16.38
0.296,0.5,0.05,0.9,-19.28,10.09,32.64
0.298,0.48,0.06,0.91,-25.05,22.4,42.61
0.3,0.47,-0.02,0.84,-20.75,24.31,51.28
0.302,0.38,-0.06,0.94,-15.73,24.7,54.92
0.304,0.21,-0.08,0.9,-12.05,32.81,43.57
0.306,0.11,-0.14,0.96,4.44,9.97,17.28
0.308,0.19,-0.13,0.93,6.56,-6.32,-7.97
0.309,0.39,-0.06,0.94,4.29,-7.53,-15.48
0.311,0.47,0.01,1.01,1.63,-2.4,-6.34
0.313,0.41,-0.01,1.03,-0.09,-4.63,5.27
0.315,0.31,-0.08,1.03,4.09,-13.77,2.84
0.317,0.32,-0.1,1.01,6.69,-24.96,-5.89
0.319,0.34,-0.1,0.96,5.48,-22.34,-16.05
0.32,0.44,-0.06,0.95,4.03,-3.02,-21.5
0.322,0.47,-0.04,0.98,4.87,10.23,-17.05
0.324,0.44,-0.04,0.98,6.34,13.27,-12.2
0.326,0.51,0.0,0.95,2.08,20.98,-13.24
0.328,0.54,0.01,0.99,-10.75,2.43,-9.95
0.329,0.42,-0.06,1.02,3.24,0.89,-10.08
0.332,0.47,-0.05,0.99,-5.79,5.83,-8.99
0.334,0.51,-0.02,0.93,-4.95,6.35,-6.67
0.335,0.47,-0.02,0.95,-8.89,1.59,-1.15
0.337,0.43,-0.04,0.92,-7.74,1.8,3.28
0.339,0.41,-0.06,0.85,-0.9,-8.52,6.55
0.341,0.38,-0.07,0.91,-4.78,-7.27,0.56
0.343,0.33,-0.09,0.9,-4.58,-0.9,-4.49
0.345,0.34,-0.09,0.91,3.66,-3.71,-8.38
0.346,0.39,-0.06,0.89,4.52,-6.03,-8.06
0.348,0.43,-0.03,0.9,7.53,-5.94,-6.92
0.35,0.39,-0.03,0.98,5.8,-0.2,-5.34
0.352,0.38,-0.05,0.96,5.47,-4.4,-7.28
0.354,0.39,-0.05,0.97,4.76,-5.25,-6.75
0.356,0.39,-0.03,0.96,-2.12,-3.54,-6.56
0.357,0.41,-0.04,0.91,0.66,-1.92,-6.56
0.359,0.4,-0.04,0.92,2.5,6.56,-8.37
0.361,0.38,-0.03,0.99,-0.2,3.01,-8.17
0.363,0.42,-0.01,0.93,-1.1,0.49,-5.89
0.365,0.39,-0.02,0.94,-1.36,2.61,-3.97
0.367,0.38,-0.03,0.92,-1.08,-1.16,-4.23
0.368,0.37,-0.04,0.92,-0.72,-9.18,-3.34
0.37,0.37,-0.02,0.93,1.18,-8.05,-7.07
0.372,0.42,-0.06,0.89,1.31,-8.92,-7.08
0.374,0.43,-0.01,0.86,-0.84,7.95,-6.84
0.376,0.42,0.0,0.94,0.14,2.17,-6.12
0.377,0.38,0.01,0.99,-3.36,2.09,-5.82
0.379,0.35,-0.03,0.99,-3.77,-2.06,-8.96
0.381,0.37,-0.05,0.96,-1.44,-7.19,-15.53
0.383,0.44,-0.02,0.93,-1.63,-8.35,-13.39
0.385,0.43,0.0,0.91,0.56,-5.18,-9.62
0.387,0.43,0.01,0.96,1.37,0.2,-5.91
0.389,0.42,-0.01,0.98,-0.14,-13.18,-4.43
0.39,0.41,0.01,0.99,-0.93,-14.09,-6.24
0.392,0.45,0.01,0.96,-2.72,-11.02,-8.87
0.394,0.44,0.01,0.96,-0.29,-12.18,-10.49
0.396,0.44,0.02,0.98,-0.05,-15.91,-19.16
0.397,0.53,0.04,1.04,-7.53,-16.96,-26.05
0.399,0.59,0.05,0.92,-13.24,-17.3,-30.82
0.401,0.67,-0.01,0.82,-8.99,-18.24,-33.83
0.403,0.67,-0.01,0.78,-2.26,-5.42,-32.12
0.405,0.66,-0.01,0.8,1.88,4.66,-32.99
0.407,0.67,0.0,0.8,9.02,17.18,-33.79
0.408,0.61,0.07,0.89,15.85,29.62,-32.46
0.41,0.59,0.09,0.92,23.37,29.63,-30.06
0.412,0.59,0.07,0.89,20.52,31.27,-32.26
0.414,0.57,0.1,0.86,26.12,29.51,-26.14
0.416,0.58,0.18,0.99,7.24,11.47,-24.85
0.418,0.52,0.2,0.94,-1.27,13.92,-17.21
0.42,0.46,0.18,0.98,4.61,-2.46,-13.76
0.421,0.4,0.17,0.98,0.37,-10.92,-23.4
0.433,0.41,0.19,0.86,12.78,-7.65,-32.55
0.451,0.5,0.12,0.8,37.18,-9.15,-32.05
0.475,0.59,0.15,0.78,49.91,11.95,-17.6
0.493,0.56,0.19,0.77,54.21,25.4,-6.61
0.512,0.56,0.27,0.89,46.17,31.73,12.85
0.532,0.46,0.35,1.04,31.83,45.89,19.57
0.554,0.49,0.37,1.15,10.41,52.06,31.21
0.573,0.4,0.32,1.06,0.66,41.77,42.26
0.591,0.33,0.29,1.04,-11.25,33.33,44.78
0.614,0.31,0.25,1.0,-13.53,22.84,45.85
0.633,0.27,0.24,1.02,-16.52,7.79,55.62
0.652,0.29,0.18,1.0,-15.39,1.21,55.39
0.674,0.34,0.16,0.96,-16.41,17.98,58.96
0.693,0.3,0.14,0.95,-14.87,25.42,63.01
0.711,0.24,0.14,0.93,-9.5,25.22,65.54
0.734,0.22,0.14,0.98,-3.56,11.07,63.95
0.753,0.33,0.17,1.02,-12.11,14.02,65.95
0.772,0.31,0.17,0.97,-17.07,13.66,68.73
0.794,0.27,0.1,1.0,-17.53,15.16,71.8
0.813,0.28,0.07,0.93,-20.55,14.78,73.66
0.832,0.23,0.05,0.89,-13.73,9.53,71.13
0.855,0.28,0.05,0.89,-9.36,9.59,68.99
0.873,0.33,0.03,0.87,-7.77,15.57,71.28
0.892,0.28,0.02,0.87,-1.27,20.98,75.42
0.911,0.14,0.01,0.94,3.34,17.18,69.63
0.934,0.2,0.04,0.92,-0.89,19.34,59.21
0.952,0.18,0.03,0.91,11.71,40.02,60.03
0.971,0.09,-0.03,0.88,11.63,13.31,57.82
0.994,0.15,0.04,0.98,18.35,12.17,65.19
1.012,0.14,0.02,0.99,21.88,23.27,67.21
1.032,0.14,0.04,1.01,13.54,18.93,69.88
1.054,-0.01,0.04,1.05,5.57,24.47,59.91
1.073,0.08,0.05,1.06,-6.31,22.75,53.13
1.091,0.11,0.03,1.04,-10.61,36.34,53.5
1.114,0.09,-0.0,1.03,-9.53,44.96,55.08
1.133,0.05,-0.01,0.98,-4.05,46.82,60.41
1.152,0.01,-0.04,0.98,2.49,36.53,54.79
1.174,0.01,-0.04,0.99,7.11,20.0,54.08
1.193,0.02,-0.04,1.02,7.76,3.89,50.9
1.212,0.04,-0.02,1.01,6.08,-1.88,46.37
1.235,0.02,0.01,1.06,0.32,-5.65,42.26
1.254,0.07,0.03,1.08,0.46,-0.08,42.34
1.272,0.1,0.04,1.05,-2.98,8.03,48.12
1.292,0.12,0.02,1.02,-0.18,8.2,50.03
1.314,0.11,0.0,0.99,-1.44,13.13,52.92
1.332,0.0,-0.0,0.97,-1.31,8.58,46.49
1.351,0.01,0.0,0.97,1.4,7.02,40.12
1.375,0.08,-0.01,0.98,6.82,1.65,41.1
1.393,0.1,0.02,0.99,11.31,-4.0,48.05
1.412,0.12,0.05,1.02,10.27,3.3,50.75
1.431,0.01,0.04,1.04,8.73,6.35,50.4
1.455,-0.0,0.02,1.03,3.28,8.85,36.14
1.471,0.11,0.03,1.02,4.26,9.54,33.97
1.498,0.17,0.05,0.99,6.89,18.08,42.18
1.513,0.1,0.08,1.03,11.01,9.74,53.11
1.533,-0.03,0.05,1.08,10.78,4.73,50.21
1.551,-0.02,0.05,1.1,2.85,5.42,40.52
1.574,0.02,0.04,1.1,-4.0,-3.88,30.99
1.592,0.06,0.03,1.07,-10.64,4.52,36.55
1.611,0.02,-0.01,1.0,-6.9,-3.27,39.66
1.634,-0.01,-0.03,0.97,-5.34,-0.81,34.38
1.653,0.03,-0.02,0.96,-4.35,5.02,26.52
1.672,0.02,-0.04,0.99,-3.71,10.38,23.37
1.694,-0.01,-0.04,0.99,2.02,5.66,22.98
1.713,0.08,-0.04,0.97,5.85,1.8,18.52
1.732,0.11,-0.01,0.97,4.0,17.05,23.15
1.754,0.0,-0.01,0.99,3.82,13.69,24.18
1.773,0.02,-0.01,0.97,3.82,10.03,18.29
1.792,0.03,0.01,0.95,5.59,10.06,19.33
1.815,0.02,-0.0,0.98,7.74,5.39,18.9
1.834,0.04,0.03,0.96,1.69,12.49,19.16
1.851,0.02,0.04,0.96,1.73,8.49,15.68
1.875,0.09,0.03,0.91,1.01,10.4,20.29
1.891,0.02,0.02,0.92,2.38,7.85,23.59
1.915,-0.01,0.03,0.92,6.89,6.02,24.17
1.933,-0.0,0.02,0.95,5.02,3.11,17.15
1.952,-0.02,0.02,1.02,6.95,8.47,19.5
1.972,-0.01,0.04,0.99,9.19,5.91,21.18
1.994,-0.06,0.03,1.04,11.27,-8.12,20.5
2.012,-0.01,0.07,1.06,6.14,-4.6,18.7
2.032,-0.08,0.07,1.1,2.76,-9.24,21.18
2.054,-0.09,0.04,1.03,-1.22,-16.53,17.42
2.073,-0.07,0.02,1.03,-1.94,-22.24,8.87
2.092,-0.0,0.02,1.01,-12.35,-9.92,2.43
2.114,-0.01,0.01,1.03,3.92,-12.4,7.15
2.133,0.03,0.03,1.03,8.43,-37.59,10.18
2.151,0.04,0.05,1.09,-6.38,-15.8,16.99
2.174,-0.01,0.02,1.01,-9.92,-28.84,9.66
2.193,0.02,0.01,1.01,-12.47,-9.42,5.79
2.211,0.02,0.0,1.0,-4.41,6.02,3.19
2.231,0.04,0.01,1.01,4.15,4.72,3.31
2.254,0.16,0.03,1.06,-6.43,9.21,11.42
2.272,0.01,-0.0,1.06,-11.63,-10.32,11.74
2.291,0.08,0.03,1.01,-18.34,0.2,14.02
2.314,0.11,0.01,0.98,-21.62,7.13,16.09
2.332,0.03,-0.02,0.97,-24.05,15.85,20.27
2.352,0.04,-0.07,0.98,-20.73,7.63,14.78
2.374,0.03,-0.05,0.96,-22.26,18.46,18.96
2.392,0.01,-0.04,1.0,-17.33,3.82,17.92
2.411,0.01,-0.05,1.0,-21.36,15.73,18.29
2.434,0.03,-0.08,0.97,-19.39,34.26,13.63
2.452,-0.05,-0.09,0.99,-15.31,51.37,2.69
2.471,-0.04,-0.05,1.05,-7.11,55.68,1.31
2.494,0.02,-0.1,1.03,-3.34,49.54,5.47
2.512,-0.03,-0.01,1.09,-10.2,42.56,9.69
2.531,-0.17,-0.09,0.99,-8.29,21.51,3.76
2.554,-0.12,-0.08,1.08,-7.85,20.31,-1.57
2.572,-0.08,-0.1,1.04,-2.89,13.94,-2.17
2.591,-0.14,-0.07,1.0,-2.02,3.31,4.52
2.613,-0.16,-0.04,1.0,4.73,-9.86,1.16
2.632,-0.07,0.01,0.99,7.68,-4.49,1.94
2.651,-0.1,0.0,1.06,12.53,-11.86,2.46
2.674,-0.13,-0.01,1.05,6.81,-8.6,6.06
2.693,-0.16,-0.03,1.0,-2.98,-3.07,0.41
2.712,-0.12,-0.05,0.93,-11.24,7.33,-0.99
2.734,-0.14,-0.02,0.94,0.2,1.77,1.04
2.753,-0.1,-0.0,0.98,6.2,1.04,6.21
2.772,-0.13,0.04,0.98,5.02,-1.59,12.38
2.794,-0.08,-0.0,0.98,-0.61,-11.3,15.16
2.812,-0.11,-0.06,0.97,-4.44,-13.13,16.73
2.832,-0.05,-0.12,0.94,-5.24,-14.41,16.75
2.854,-0.13,-0.1,0.88,-7.89,3.95,19.94
2.872,-0.13,-0.11,0.91,0.98,-7.47,12.81
2.892,-0.11,-0.05,0.91,7.07,9.11,13.45
2.914,-0.15,-0.03,0.98,11.47,3.31,12.06
2.933,-0.11,-0.03,0.99,8.87,15.19,9.05
2.952,-0.09,-0.03,1.09,7.76,12.9,5.21
2.974,-0.08,-0.02,1.11,-1.33,15.66,9.31
2.993,-0.17,-0.04,1.14,-7.08,9.62,8.27
3.012,-0.14,-0.03,1.12,-15.4,11.79,9.68
3.034,-0.16,-0.07,1.06,-21.02,15.42,6.32
3.053,-0.12,-0.12,1.0,-18.34,13.25,4.05
3.072,-0.14,-0.13,0.95,-11.91,7.3,3.31
3.094,-0.14,-0.12,0.96,-4.67,-2.96,-2.26
3.113,-0.11,-0.11,0.96,-2.11,-0.05,-3.05
3.131,-0.11,-0.08,0.98,-0.63,-4.11,-0.37
3.154,-0.16,-0.07,1.01,-2.32,-4.27,-2.7
3.172,-0.14,-0.06,0.99,-2.03,-5.31,-6.87
3.191,-0.09,-0.07,0.97,-1.57,-2.82,-6.93
3.214,-0.12,-0.07,0.98,4.78,-3.71,-4.99
3.232,-0.11,-0.06,0.99,8.32,-3.53,-5.19
3.252,-0.1,-0.05,1.01,6.47,-1.54,-5.71
3.274,-0.11,-0.04,1.01,4.63,0.53,-7.39
3.293,-0.09,-0.01,1.04,4.06,0.79,-5.31
3.312,-0.1,-0.01,1.04,5.07,-1.71,-4.05
3.334,-0.08,-0.01,1.05,-0.26,4.32,-2.09
3.353,-0.09,-0.03,1.02,-4.24,8.09,-1.16
3.372,-0.09,-0.06,0.98,-5.3,6.7,-0.98
3.394,-0.07,-0.05,0.96,-2.96,-1.95,-1.21
3.413,-0.09,-0.06,0.96,4.5,3.05,-2.99
3.432,-0.05,-0.03,0.97,10.21,-3.76,-3.1
3.454,-0.06,-0.02,1.01,13.4,-2.34,-2.21
3.473,-0.09,-0.0,1.03,14.85,-2.75,-3.34
3.492,-0.07,0.01,1.06,9.56,-2.4,-5.4
3.514,-0.06,0.02,1.06,5.57,-1.39,-3.19
3.533,-0.08,0.02,1.03,2.72,0.02,-1.69
3.552,-0.11,0.03,1.0,4.44,1.4,-1.08
3.571,-0.08,0.01,1.01,6.93,0.05,-2.47
3.594,-0.08,0.0,1.02,7.68,0.26,-1.77
3.612,-0.06,-0.01,1.03,5.68,3.19,-1.6
3.632,-0.1,0.0,1.04,2.69,3.82,-1.39
3.661,-0.1,-0.0,1.04,1.3,3.27,-1.21
3.673,-0.12,-0.02,1.01,3.77,-0.78,-0.53
3.692,-0.1,-0.02,1.01,7.05,-1.13,-1.65
3.714,-0.11,0.01,1.01,5.65,-3.24,-2.99
3.733,-0.08,0.01,1.02,5.16,-6.79,-2.08
3.751,-0.07,0.03,1.01,1.63,-6.23,-0.46
3.774,-0.1,0.02,1.03,0.18,-6.52,-0.15
3.793,-0.08,0.02,1.04,-0.37,-6.85,-1.01
3.812,-0.06,0.04,1.05,-1.85,-5.8,1.13
3.834,-0.06,0.03,1.02,-2.82,-1.97,3.68
3.853,-0.08,0.04,1.02,-2.82,-0.49,3.07
3.872,-0.07,0.03,1.03,-3.28,-2.92,4.49
3.895,-0.13,-0.01,1.0,-7.31,-2.85,0.14
3.913,-0.05,-0.0,1.0,-8.7,0.47,0.96
3.932,-0.14,-0.03,1.0,-6.09,-1.98,-3.74
3.955,-0.05,-0.01,1.0,-3.34,-1.15,-5.13
3.973,-0.07,0.01,1.01,-1.37,-2.66,-1.86
3.992,-0.08,0.01,1.01,-3.51,-5.33,-0.63
