timestamp,acce_x,acce_y,acce_z,gyro_x,gyro_y,gyro_z
0.002,0.12,-1.04,-0.13,6.53,16.96,8.05
0.003,0.12,-1.01,-0.17,10.55,19.08,8.63
0.005,0.12,-0.98,-0.19,11.5,16.64,8.2
0.006,0.11,-0.98,-0.18,9.54,13.66,6.61
0.007,0.11,-0.97,-0.18,9.4,9.62,6.15
0.009,0.13,-0.98,-0.19,10.09,8.79,6.31
0.01,0.15,-0.98,-0.21,11.42,10.72,5.04
0.011,0.14,-0.99,-0.21,9.85,13.68,3.22
0.013,0.11,-0.98,-0.23,8.72,14.15,2.21
0.014,0.07,-0.99,-0.22,6.64,13.16,2.2
0.015,0.09,-0.99,-0.22,6.12,10.78,3.18
0.016,0.1,-0.99,-0.22,6.18,9.8,2.75
0.017,0.09,-0.98,-0.22,4.85,9.13,2.21
0.018,0.08,-0.97,-0.23,2.37,5.71,1.44
0.019,0.1,-0.99,-0.2,0.63,1.18,0.11
0.021,0.1,-0.99,-0.2,2.24,0.98,-1.18
0.022,0.09,-0.99,-0.21,3.77,1.62,-1.33
0.023,0.09,-0.98,-0.2,5.24,2.11,0.06
0.024,0.11,-0.97,-0.21,5.08,3.71,0.76
0.025,0.09,-0.97,-0.21,3.56,5.92,0.08
0.026,0.06,-0.96,-0.21,4.56,2.32,0.08
0.027,0.08,-0.96,-0.21,2.96,-1.16,0.2
0.028,0.09,-0.98,-0.21,3.71,-2.12,0.63
0.029,0.09,-0.97,-0.22,4.5,1.56,1.94
0.03,0.08,-0.96,-0.22,3.15,1.68,1.47
0.031,0.09,-0.98,-0.21,4.43,-2.21,0.92
0.032,0.09,-0.98,-0.22,4.95,-0.93,1.5
0.033,0.1,-0.97,-0.22,3.59,0.81,2.32
0.034,0.11,-0.97,-0.23,3.07,0.41,2.73
0.035,0.12,-0.97,-0.22,1.13,1.48,2.38
0.036,0.12,-0.99,-0.21,1.62,3.19,3.02
0.037,0.15,-0.97,-0.22,2.76,7.19,3.59
0.038,0.12,-0.99,-0.22,2.4,8.82,2.69
0.039,0.11,-1.0,-0.21,2.23,6.98,2.2
0.04,0.1,-0.99,-0.21,3.86,6.5,3.19
0.041,0.11,-1.0,-0.19,3.04,5.74,2.29
0.042,0.12,-1.01,-0.18,4.99,3.33,1.73
0.043,0.11,-1.01,-0.17,6.93,4.5,2.06
0.044,0.1,-1.03,-0.14,10.32,5.27,1.28
0.045,0.09,-1.02,-0.14,13.1,2.82,2.35
0.046,0.08,-1.04,-0.12,16.32,0.85,1.24
0.046,0.06,-1.07,-0.08,20.85,-0.7,1.94
0.047,0.02,-1.11,-0.02,23.73,-4.08,2.78
0.048,-0.06,-1.23,0.1,38.73,-15.48,5.83
0.049,-0.03,-1.27,0.17,63.53,-18.06,19.94
0.05,-0.01,-1.28,0.18,79.47,-0.15,25.86
0.051,-0.02,-1.31,0.19,97.5,4.15,35.05
0.052,-0.04,-1.33,0.27,113.02,4.21,39.21
0.053,0.02,-1.37,0.24,130.34,18.14,43.42
0.054,-0.06,-1.35,0.27,146.24,20.76,50.72
0.055,-0.09,-1.36,0.37,154.24,13.8,57.94
0.055,-0.01,-1.36,0.37,163.74,10.44,57.97
0.056,-0.02,-1.37,0.4,174.35,12.78,52.49
0.057,-0.09,-1.35,0.41,183.85,13.34,53.51
0.058,-0.08,-1.31,0.4,186.55,13.22,53.57
0.059,-0.12,-1.28,0.44,189.51,11.31,53.65
0.06,-0.16,-1.21,0.44,193.86,9.18,59.07
0.06,-0.21,-1.14,0.45,186.79,-0.89,54.79
0.061,-0.25,-1.08,0.48,182.79,-25.02,52.23
0.062,-0.22,-1.0,0.48,179.08,-30.53,54.98
0.063,-0.22,-0.91,0.47,168.58,-25.71,52.23
0.064,-0.28,-0.86,0.53,163.18,-41.37,54.87
0.065,-0.21,-0.79,0.52,156.4,-50.21,54.34
0.065,-0.2,-0.72,0.55,147.24,-57.47,48.98
0.066,-0.15,-0.64,0.55,140.99,-68.37,46.14
0.067,-0.13,-0.57,0.57,130.6,-73.07,39.56
0.068,-0.12,-0.52,0.6,119.86,-79.73,31.94
0.069,-0.08,-0.46,0.61,113.77,-94.58,25.45
0.069,-0.0,-0.39,0.63,102.03,-100.21,17.56
0.07,0.03,-0.36,0.64,95.07,-96.37,10.32
0.071,0.08,-0.3,0.65,88.4,-90.73,7.94
0.072,0.13,-0.28,0.67,77.3,-76.64,7.98
0.072,0.14,-0.28,0.71,70.87,-64.02,5.08
0.073,0.14,-0.28,0.74,71.39,-59.27,1.28
0.074,0.15,-0.24,0.74,70.92,-55.82,-2.63
0.075,0.17,-0.2,0.73,64.32,-44.43,-2.2
0.075,0.14,-0.2,0.76,52.35,-28.43,-2.46
0.076,0.11,-0.21,0.81,44.87,-22.27,-1.3
0.077,0.05,-0.24,0.89,43.11,-28.69,-0.52
0.078,0.08,-0.24,0.92,49.6,-31.27,2.73
0.079,0.11,-0.21,0.92,49.51,-20.56,9.39
0.079,0.14,-0.17,0.93,48.15,-7.27,13.91
0.08,0.16,-0.14,0.91,44.66,-10.12,8.85
0.081,0.16,-0.11,0.91,42.41,-26.55,2.18
0.082,0.21,0.04,0.93,3.5,20.49,9.25
0.082,0.19,0.01,0.95,-0.24,15.25,5.11
0.088,0.22,0.02,0.95,-0.96,2.46,1.04
0.111,0.21,0.02,0.97,-2.99,-6.05,-3.3
0.13,0.22,0.0,0.98,-1.1,-6.67,-1.04
0.148,0.22,-0.0,0.99,0.99,-0.76,1.07
0.167,0.21,0.01,0.99,1.25,1.15,2.15
0.188,0.2,0.01,0.99,0.66,-1.73,2.92
0.211,0.2,-0.0,1.01,2.0,-4.05,1.21
0.228,0.21,0.0,1.01,3.62,-6.93,0.78
0.252,0.21,0.0,1.01,3.79,-6.69,-1.15
0.27,0.22,-0.01,1.01,4.49,-10.21,-2.6
0.288,0.23,0.01,1.0,4.96,-12.75,-2.85
0.306,0.25,0.01,1.0,4.14,-12.26,-3.07
0.33,0.26,0.01,1.02,5.85,-11.3,-4.96
0.348,0.26,0.02,1.0,5.77,-11.71,-5.21
0.367,0.28,0.03,0.99,4.63,-9.57,-6.02
0.391,0.27,0.02,0.99,5.77,-8.46,-7.25
0.409,0.27,0.05,0.98,5.57,-6.09,-6.72
0.427,0.26,0.05,0.95,2.73,-3.66,-6.82
0.451,0.26,0.04,0.99,1.62,-4.31,-5.83
0.47,0.26,0.04,0.99,2.21,-1.6,-3.44
0.488,0.26,0.05,1.0,1.5,3.51,-1.97
0.508,0.24,0.04,1.02,2.81,0.21,-1.19
0.531,0.25,0.05,1.01,3.79,-3.5,-1.57
0.55,0.25,0.03,1.02,1.91,-3.24,-2.41
0.568,0.24,0.03,1.02,2.85,-1.98,-1.94
0.587,0.23,0.02,1.01,3.79,-0.09,-0.85
0.611,0.24,0.02,1.0,3.47,1.21,0.84
0.629,0.26,0.04,0.99,2.21,2.64,0.29
0.648,0.24,0.03,0.99,1.77,1.02,1.34
0.666,0.25,0.03,1.0,3.54,0.2,2.4
0.688,0.27,0.02,1.02,4.11,-0.73,1.34
0.708,0.27,0.03,1.01,6.37,-2.12,1.27
0.728,0.27,0.05,1.0,5.56,-1.05,1.18
0.746,0.27,0.03,1.02,5.74,0.56,0.72
0.77,0.25,0.04,1.0,9.53,0.44,3.74
0.789,0.26,0.05,1.0,9.07,5.42,5.21
0.807,0.25,0.06,0.99,9.07,6.11,4.89
0.831,0.24,0.06,0.97,7.31,1.48,4.5
0.85,0.28,0.07,0.96,4.35,2.98,3.56
0.869,0.24,0.06,0.97,4.35,3.27,2.55
0.887,0.23,0.07,0.96,4.43,0.87,6.96
0.911,0.24,0.06,0.97,0.31,4.79,5.82
0.93,0.24,0.06,0.97,0.32,2.38,5.45
0.948,0.22,0.05,0.97,1.05,-3.11,5.39
0.971,0.26,0.04,0.99,-0.55,-2.2,4.81
0.99,0.25,0.03,1.0,1.57,1.48,6.73
1.009,0.23,0.03,1.01,4.11,2.95,6.08
1.027,0.23,0.06,1.0,5.24,4.56,8.02
1.051,0.22,0.06,0.98,1.48,5.73,7.07
1.068,0.21,0.03,1.0,0.0,-0.67,5.51
1.088,0.21,0.03,1.02,2.05,-6.17,6.44
1.108,0.24,0.03,1.03,2.15,-1.95,7.54
1.128,0.24,0.02,1.02,1.6,-1.24,7.31
1.148,0.25,0.01,1.0,3.1,-4.2,7.05
1.168,0.25,0.02,1.02,2.79,-4.46,5.69
1.188,0.26,0.02,1.01,3.31,-5.91,4.87
1.208,0.28,0.01,1.02,3.82,-5.13,4.29
1.228,0.28,0.02,1.0,4.2,-2.61,3.45
1.248,0.27,0.02,0.98,3.94,-1.33,2.99
1.268,0.27,0.03,0.99,4.69,-1.34,1.97
1.288,0.28,0.04,0.97,3.47,-1.34,0.89
1.311,0.27,0.03,0.96,4.92,-4.27,-0.12
1.328,0.27,0.05,0.95,4.66,-1.85,0.09
1.348,0.26,0.05,0.96,1.37,0.49,-0.58
1.371,0.26,0.05,0.95,0.41,-1.02,-1.04
1.39,0.26,0.05,0.96,-0.7,-2.56,-0.7
1.408,0.26,0.04,0.96,-1.63,-1.25,-1.53
1.427,0.26,0.05,0.96,-2.14,-0.93,-0.44
1.45,0.26,0.05,0.97,-4.27,0.46,-0.78
1.468,0.26,0.04,0.99,-4.38,-2.26,-0.98
1.487,0.27,0.05,0.98,-3.73,-2.82,-0.24
1.511,0.26,0.04,0.99,-4.66,-0.69,-0.55
1.529,0.27,0.04,0.99,-4.7,-2.2,-0.47
1.547,0.26,0.03,1.0,-4.72,-2.31,-0.53
1.571,0.26,0.03,0.99,-3.15,-1.65,-1.19
1.588,0.25,0.04,0.98,-2.55,0.02,0.17
1.608,0.25,0.05,0.96,-3.6,2.06,1.01
1.628,0.24,0.06,0.95,-5.37,0.7,1.02
1.652,0.24,0.06,0.97,-6.66,-2.95,1.36
1.67,0.26,0.03,0.97,-6.64,-3.65,1.71
1.688,0.26,0.02,0.98,-6.93,-2.78,2.37
1.707,0.27,0.03,0.97,-6.56,-1.02,3.66
1.728,0.26,0.02,0.98,-7.48,1.01,3.13
1.751,0.25,0.01,0.96,-7.27,-0.03,4.08
1.77,0.25,0.01,0.95,-8.23,-0.46,4.44
1.788,0.26,0.0,0.97,-8.72,-3.07,4.58
1.807,0.28,-0.0,0.96,-9.08,-4.82,2.58
1.83,0.29,0.01,0.94,-9.62,-2.95,3.22
1.849,0.28,0.0,0.95,-10.85,-0.06,3.86
1.867,0.29,0.0,0.96,-12.52,0.14,2.98
1.891,0.27,-0.02,0.98,-12.78,-3.71,0.81
1.909,0.28,-0.02,0.99,-10.66,-4.76,1.36
1.927,0.29,-0.01,0.98,-12.11,1.15,2.61
1.951,0.27,-0.01,0.97,-11.91,4.11,4.2
1.969,0.27,-0.02,0.97,-12.38,5.25,5.37
1.988,0.26,-0.02,0.98,-12.5,4.2,4.69
2.011,0.26,-0.03,0.99,-13.53,0.43,3.4
2.03,0.26,-0.05,0.99,-12.81,-2.37,2.75
2.048,0.27,-0.06,0.97,-12.03,-2.02,2.85
2.071,0.29,-0.06,0.97,-13.59,1.48,2.17
2.09,0.28,-0.07,0.97,-12.55,1.54,3.57
2.108,0.27,-0.08,0.95,-13.24,4.7,4.21
2.127,0.28,-0.09,0.96,-14.66,4.95,4.18
2.15,0.29,-0.1,0.97,-13.69,3.19,3.79
2.169,0.29,-0.1,0.95,-12.29,4.41,5.21
2.187,0.29,-0.1,0.94,-14.05,11.16,5.91
2.21,0.29,-0.1,0.95,-14.96,12.75,4.69
2.229,0.28,-0.09,0.95,-15.94,10.84,2.7
2.247,0.26,-0.09,0.94,-17.97,12.79,2.31
2.27,0.25,-0.09,0.93,-19.56,15.79,2.92
2.289,0.24,-0.1,0.94,-22.93,15.62,3.01
2.307,0.23,-0.11,0.95,-24.64,13.6,2.49
2.331,0.23,-0.12,0.93,-24.93,13.97,3.25
2.349,0.21,-0.12,0.93,-27.24,15.76,4.67
2.367,0.21,-0.12,0.94,-31.83,13.11,3.34
2.39,0.21,-0.16,0.95,-30.98,9.07,3.27
2.409,0.21,-0.17,0.95,-31.39,11.91,3.91
2.427,0.22,-0.18,0.95,-32.98,15.25,3.56
2.451,0.21,-0.2,0.94,-33.47,13.91,3.18
2.469,0.2,-0.21,0.94,-34.21,14.05,3.22
2.487,0.19,-0.22,0.91,-35.79,15.36,1.94
2.511,0.16,-0.23,0.9,-38.06,11.86,0.08
2.529,0.16,-0.25,0.93,-40.75,4.32,-1.85
2.547,0.19,-0.28,0.94,-40.63,2.29,-1.85
2.571,0.18,-0.3,0.95,-39.07,10.46,0.81
2.589,0.16,-0.31,0.93,-39.77,17.66,3.36
2.607,0.14,-0.33,0.95,-41.51,15.5,2.63
2.631,0.14,-0.36,0.96,-41.11,8.0,-0.23
2.649,0.17,-0.36,0.94,-40.55,7.5,-1.44
2.668,0.15,-0.38,0.94,-39.08,12.6,0.37
2.691,0.11,-0.38,0.91,-36.29,19.3,4.95
2.709,0.1,-0.37,0.89,-38.47,21.45,7.28
2.728,0.11,-0.38,0.89,-39.97,17.25,6.61
2.751,0.11,-0.4,0.87,-42.18,13.92,4.2
2.769,0.12,-0.43,0.89,-42.75,14.34,4.49
2.788,0.11,-0.44,0.88,-40.89,20.93,8.58
2.811,0.09,-0.42,0.84,-40.12,28.0,12.98
2.829,0.07,-0.43,0.82,-45.54,29.57,15.47
2.848,0.1,-0.48,0.86,-48.11,19.01,8.99
2.871,0.11,-0.51,0.85,-44.67,11.15,5.68
2.889,0.1,-0.51,0.84,-44.61,18.31,7.27
2.908,0.1,-0.53,0.82,-46.76,25.22,6.53
2.931,0.09,-0.55,0.83,-47.11,20.4,1.91
2.949,0.08,-0.56,0.8,-46.05,15.11,-1.85
2.968,0.05,-0.57,0.78,-47.39,17.22,-1.95
2.991,0.06,-0.57,0.78,-49.44,17.95,-1.08
3.009,0.09,-0.58,0.76,-50.02,20.2,-1.51
3.027,0.06,-0.58,0.71,-51.94,24.64,-2.49
3.051,0.02,-0.59,0.68,-55.37,24.82,-3.28
3.069,-0.03,-0.61,0.68,-62.85,14.98,-7.83
3.087,0.01,-0.65,0.71,-69.25,-1.44,-15.1
3.11,0.06,-0.7,0.71,-66.9,-9.89,-20.49
3.128,0.07,-0.71,0.67,-65.13,-3.83,-19.02
3.147,0.05,-0.7,0.62,-65.83,7.51,-12.18
3.17,0.03,-0.7,0.58,-70.46,14.76,-7.92
3.188,-0.0,-0.74,0.57,-74.43,7.53,-11.16
3.207,0.0,-0.78,0.58,-74.43,-4.24,-9.59
3.23,0.07,-0.82,0.59,-77.21,-1.3,-9.39
3.248,0.11,-0.87,0.59,-76.89,3.69,-10.96
3.267,0.11,-0.88,0.58,-71.19,7.92,-9.08
3.29,0.1,-0.89,0.53,-68.05,21.54,-6.47
3.308,0.05,-0.87,0.49,-67.3,26.21,-6.11
3.331,0.01,-0.87,0.46,-67.42,18.17,-8.73
3.35,-0.02,-0.87,0.42,-69.54,10.55,-8.49
3.368,-0.03,-0.88,0.38,-74.03,10.89,-5.42
3.391,-0.06,-0.91,0.36,-76.23,9.28,-1.88
3.409,-0.06,-0.92,0.34,-79.51,6.81,1.11
3.428,-0.07,-0.95,0.31,-84.76,1.56,1.76
3.451,-0.01,-0.96,0.29,-86.92,-8.64,4.46
3.47,0.03,-1.0,0.28,-90.24,-8.35,1.57
3.488,0.03,-1.01,0.27,-90.21,-8.4,2.5
3.511,0.05,-1.03,0.24,-90.4,-6.7,2.93
3.529,0.07,-1.04,0.24,-91.15,-3.82,2.85
3.548,0.09,-1.07,0.23,-89.24,2.34,3.04
3.571,0.09,-1.08,0.21,-86.9,8.44,0.6
3.59,0.07,-1.09,0.2,-84.35,7.36,-0.7
3.608,0.06,-1.09,0.17,-80.5,9.94,-1.62
3.626,0.02,-1.1,0.11,-78.31,13.28,0.14
3.65,-0.01,-1.09,0.09,-78.72,13.71,3.98
3.668,-0.02,-1.11,0.09,-79.02,11.42,6.98
3.692,-0.03,-1.11,0.07,-74.15,9.59,10.21
3.71,0.0,-1.09,0.02,-70.05,13.54,18.73
3.728,-0.03,-1.09,-0.01,-70.93,16.93,23.08
3.751,-0.08,-1.09,-0.02,-70.23,11.68,28.06
3.769,-0.07,-1.1,-0.03,-69.66,7.31,35.79
3.788,0.02,-1.11,-0.01,-64.87,6.47,25.73
3.81,0.02,-1.13,-0.04,-54.18,-1.6,11.51
3.829,-0.02,-1.11,-0.04,-50.14,-1.86,4.44
3.847,-0.03,-1.1,-0.07,-44.23,4.27,8.21
3.87,-0.01,-1.09,-0.09,-39.08,14.38,13.22
3.888,-0.01,-1.1,-0.08,-34.63,14.84,9.01
3.907,-0.01,-1.11,-0.08,-28.53,8.27,2.78
3.93,0.0,-1.11,-0.09,-22.03,6.75,-0.12
3.948,-0.01,-1.1,-0.11,-14.75,12.41,3.68
3.966,0.0,-1.08,-0.11,-8.93,16.66,5.54
3.99,-0.01,-1.06,-0.13,-4.46,13.6,4.56
