timestamp,acce_x,acce_y,acce_z,gyro_x,gyro_y,gyro_z
0.002,-0.28,-0.81,-0.5,-1.24,-1.04,2.81
0.01,-0.34,-0.84,-0.5,2.56,6.81,1.16
0.017,-0.41,-0.81,-0.46,-1.16,0.56,-2.69
0.022,-0.35,-0.81,-0.51,-0.35,-1.74,-3.76
0.027,-0.33,-0.79,-0.51,-0.76,-0.72,-5.82
0.032,-0.29,-0.82,-0.56,1.59,0.78,-3.82
0.036,-0.39,-0.82,-0.48,5.57,5.05,-4.56
0.04,-0.4,-0.83,-0.48,2.02,0.14,-10.23
0.045,-0.33,-0.8,-0.45,1.82,-2.72,-10.66
0.048,-0.27,-0.78,-0.48,-0.47,-3.22,-6.7
0.05,-0.21,-0.78,-0.49,-1.65,-0.43,0.15
0.053,-0.24,-0.86,-0.58,3.76,4.26,3.45
0.055,-0.38,-0.85,-0.49,5.05,6.18,-3.56
0.057,-0.34,-0.82,-0.45,5.91,11.16,-9.15
0.059,-0.34,-0.8,-0.47,4.06,2.14,-6.32
0.061,-0.32,-0.78,-0.45,1.82,-1.44,-2.61
0.063,-0.33,-0.78,-0.43,-2.15,3.74,-2.7
0.064,-0.37,-0.84,-0.49,-5.13,-3.31,-2.6
0.067,-0.34,-0.83,-0.52,-3.01,-2.17,-4.46
0.069,-0.29,-0.84,-0.53,-0.41,-1.97,-4.6
0.07,-0.29,-0.83,-0.5,2.87,-0.61,-4.67
0.072,-0.27,-0.82,-0.48,2.52,-0.26,-2.82
0.074,-0.3,-0.81,-0.48,1.24,-0.46,-1.95
0.076,-0.32,-0.81,-0.47,-1.47,-2.47,-0.61
0.078,-0.33,-0.84,-0.51,0.52,-0.21,-2.31
0.08,-0.34,-0.82,-0.48,2.67,-0.41,-3.47
0.082,-0.35,-0.81,-0.49,1.33,-0.82,-4.09
0.084,-0.34,-0.8,-0.46,0.0,-0.55,-5.65
0.085,-0.32,-0.84,-0.5,0.21,-3.33,-6.95
0.087,-0.27,-0.84,-0.53,4.18,1.73,-6.32
0.089,-0.32,-0.83,-0.5,5.13,5.66,-6.12
0.091,-0.37,-0.83,-0.46,6.23,4.2,-7.89
0.093,-0.37,-0.85,-0.46,3.54,-1.77,-11.47
0.095,-0.31,-0.85,-0.53,7.34,-2.43,-14.14
0.097,-0.28,-0.85,-0.55,11.54,8.37,-16.35
0.099,-0.32,-0.84,-0.53,16.79,11.65,-15.42
0.101,-0.36,-0.82,-0.43,14.47,11.15,-20.47
0.103,-0.32,-0.85,-0.42,11.86,3.89,-21.25
0.105,-0.29,-0.89,-0.49,15.31,-1.62,-22.85
0.107,-0.26,-0.93,-0.55,22.7,7.25,-28.18
0.109,-0.3,-0.9,-0.53,28.73,8.92,-29.57
0.11,-0.27,-0.86,-0.48,29.02,6.96,-27.76
0.112,-0.29,-0.85,-0.45,27.11,-1.3,-25.59
0.114,-0.28,-0.84,-0.41,24.14,-3.68,-26.2
0.116,-0.24,-0.86,-0.42,25.5,-7.69,-27.31
0.118,-0.19,-0.87,-0.42,26.72,-8.17,-25.8
0.12,-0.26,-0.87,-0.36,22.58,-12.9,-22.06
0.122,-0.18,-0.85,-0.28,15.34,-18.27,-19.66
0.124,-0.09,-0.87,-0.29,8.29,-14.37,-15.1
0.125,-0.11,-0.93,-0.35,7.95,-8.73,-10.41
0.127,-0.09,-0.9,-0.31,6.46,-2.69,-7.53
0.129,-0.08,-0.89,-0.29,0.24,-2.85,-0.72
0.131,-0.13,-0.91,-0.32,-5.1,-9.54,8.95
0.134,-0.15,-0.95,-0.38,-5.25,-5.83,10.32
0.136,-0.19,-0.95,-0.4,-1.86,-1.83,7.91
0.138,-0.25,-0.92,-0.37,-0.11,5.66,2.47
0.14,-0.25,-0.91,-0.37,-0.76,3.27,2.14
0.142,-0.27,-0.88,-0.35,-3.74,-3.18,4.32
0.143,-0.25,-0.92,-0.4,-2.53,-1.11,0.56
0.145,-0.22,-0.91,-0.38,1.47,4.34,-4.85
0.147,-0.19,-0.9,-0.36,3.3,4.35,-6.03
0.149,-0.17,-0.9,-0.37,1.76,2.9,-4.35
0.151,-0.18,-0.9,-0.34,0.98,2.98,-2.53
0.153,-0.18,-0.93,-0.37,1.28,4.64,-1.8
0.155,-0.2,-0.91,-0.35,1.63,6.82,-2.02
0.157,-0.2,-0.92,-0.35,0.31,2.55,0.53
0.159,-0.21,-0.9,-0.32,-0.64,2.87,0.87
0.161,-0.21,-0.91,-0.32,-3.02,4.17,0.98
0.163,-0.22,-0.91,-0.34,-4.11,4.17,0.08
0.165,-0.22,-0.95,-0.41,-2.14,5.44,-3.04
0.167,-0.22,-0.93,-0.39,0.98,7.69,-7.1
0.169,-0.19,-0.9,-0.37,1.37,5.13,-5.34
0.171,-0.2,-0.9,-0.35,0.31,0.96,-1.95
0.173,-0.2,-0.93,-0.35,-0.23,-3.5,0.02
0.175,-0.19,-0.92,-0.34,-0.66,-2.34,0.26
0.177,-0.17,-0.92,-0.34,-0.58,0.79,2.03
0.178,-0.18,-0.91,-0.34,-1.13,4.63,3.3
0.18,-0.25,-0.92,-0.33,-3.25,2.35,3.39
0.182,-0.25,-0.93,-0.36,-3.95,-0.66,-0.14
0.184,-0.22,-0.91,-0.38,-3.1,2.27,-2.56
0.186,-0.21,-0.93,-0.37,-2.5,1.68,-0.98
0.188,-0.21,-0.93,-0.39,-1.31,3.28,-1.66
0.19,-0.21,-0.92,-0.36,-0.6,3.68,-2.26
0.192,-0.19,-0.91,-0.37,-1.19,1.77,-1.11
0.193,-0.21,-0.9,-0.34,-3.56,0.38,-0.31
0.195,-0.21,-0.91,-0.39,-2.92,-1.97,0.23
0.197,-0.19,-0.9,-0.36,-4.49,0.12,-0.21
0.199,-0.19,-0.92,-0.36,-3.5,1.11,1.11
0.201,-0.19,-0.9,-0.37,-4.73,2.78,1.48
0.203,-0.22,-0.91,-0.4,-3.04,2.66,2.06
0.205,-0.24,-0.9,-0.39,-3.22,1.51,-0.02
0.207,-0.24,-0.91,-0.4,-0.93,0.66,-0.03
0.209,-0.24,-0.91,-0.38,-1.36,1.44,-2.56
0.211,-0.24,-0.92,-0.41,0.08,-0.98,-2.96
0.212,-0.21,-0.92,-0.4,2.32,-0.72,-4.08
0.214,-0.21,-0.92,-0.39,4.37,2.64,-4.0
0.216,-0.23,-0.91,-0.36,3.79,-0.66,-4.0
0.218,-0.22,-0.9,-0.35,3.56,1.73,-4.64
0.22,-0.22,-0.91,-0.36,3.08,2.08,-4.93
0.222,-0.2,-0.9,-0.35,3.6,4.49,-5.07
0.224,-0.23,-0.93,-0.41,4.66,5.07,-4.96
0.226,-0.24,-0.96,-0.46,11.48,13.34,-11.07
0.227,-0.23,-0.94,-0.44,16.15,15.8,-13.69
0.229,-0.22,-0.93,-0.43,17.82,14.46,-12.89
0.231,-0.23,-0.96,-0.48,23.19,17.05,-15.56
0.234,-0.2,-0.97,-0.53,31.25,21.92,-19.24
0.236,-0.19,-0.95,-0.48,39.39,17.39,-16.92
0.238,-0.19,-0.97,-0.49,45.01,18.69,-16.4
0.239,-0.21,-1.0,-0.48,53.24,25.57,-19.08
0.241,-0.22,-0.99,-0.47,60.03,23.83,-21.4
0.243,-0.19,-0.96,-0.39,62.96,22.14,-23.02
0.245,-0.18,-0.96,-0.39,62.11,17.18,-22.85
0.247,-0.14,-0.98,-0.45,65.98,8.41,-22.17
0.249,-0.09,-0.98,-0.44,75.3,5.59,-20.23
0.251,-0.07,-0.96,-0.37,83.79,7.88,-19.88
0.253,-0.1,-0.97,-0.32,93.1,19.05,-24.2
0.255,-0.09,-0.94,-0.26,100.15,27.27,-28.61
0.257,-0.1,-0.91,-0.2,101.95,27.56,-27.76
0.259,-0.12,-0.92,-0.14,100.47,34.09,-26.73
0.26,-0.12,-0.92,-0.12,100.23,22.35,-19.19
0.28,-0.14,-0.9,-0.06,102.2,8.55,-16.24
0.298,-0.16,-0.87,0.08,102.05,3.1,-19.74
0.317,-0.1,-0.88,0.11,97.37,12.34,-27.13
0.339,-0.05,-0.9,0.11,96.85,14.7,-27.77
0.359,-0.02,-0.91,0.12,102.38,16.14,-28.55
0.377,-0.03,-0.88,0.22,104.55,20.37,-33.28
0.399,0.02,-0.84,0.27,100.08,31.34,-33.83
0.418,0.04,-0.85,0.27,98.18,27.82,-26.79
0.437,-0.01,-0.87,0.3,97.76,14.79,-18.84
0.459,-0.05,-0.89,0.23,100.95,15.79,-21.3
0.477,-0.07,-0.84,0.36,107.76,4.47,-24.58
0.5,0.05,-0.77,0.43,99.62,8.56,-24.43
0.518,0.02,-0.82,0.37,97.79,13.5,-19.42
0.537,-0.01,-0.8,0.39,100.32,7.39,-16.52
0.56,-0.02,-0.79,0.42,105.21,6.79,-20.4
0.578,-0.05,-0.74,0.52,103.76,21.94,-31.11
0.597,0.0,-0.76,0.46,99.18,38.09,-39.1
0.62,-0.08,-0.77,0.42,106.09,30.84,-38.6
0.638,-0.06,-0.69,0.49,109.83,3.45,-29.28
0.657,0.03,-0.61,0.6,111.74,-26.14,-15.53
0.679,0.14,-0.54,0.73,105.8,-19.92,-10.63
0.698,0.17,-0.56,0.7,92.29,5.22,-12.15
0.717,0.06,-0.56,0.7,91.51,19.04,-16.87
0.739,-0.05,-0.54,0.69,99.19,22.41,-25.74
0.758,0.07,-0.43,0.88,91.31,27.51,-29.88
0.78,0.12,-0.47,0.78,81.54,45.28,-31.71
0.799,0.08,-0.56,0.68,85.63,36.78,-17.76
0.817,0.01,-0.45,0.73,92.0,-1.74,2.99
0.84,-0.01,-0.36,0.86,91.69,-32.29,15.27
0.859,0.01,-0.32,0.95,85.18,-33.51,12.44
0.877,0.03,-0.31,0.98,70.82,1.28,-4.32
0.9,-0.04,-0.4,0.85,72.08,30.84,-28.17
0.918,0.0,-0.42,0.74,77.8,44.5,-42.61
0.937,0.01,-0.34,0.68,95.34,28.64,-36.6
0.96,0.05,-0.17,0.95,93.3,-11.56,-16.93
0.979,0.14,-0.13,1.05,78.43,3.66,-15.16
0.997,0.13,-0.21,1.02,70.84,15.88,-15.98
1.02,0.14,-0.26,0.89,79.77,12.12,-12.32
1.042,0.09,-0.21,0.83,91.39,14.37,-2.75
1.057,0.06,-0.09,0.96,90.89,5.48,6.05
1.08,0.01,-0.06,1.07,75.34,9.69,3.13
1.099,-0.03,-0.09,1.04,79.56,3.36,1.45
1.118,-0.02,-0.1,0.95,79.79,10.03,-4.87
1.14,-0.03,-0.01,0.98,87.57,-2.89,-3.34
1.159,-0.02,0.09,1.12,68.84,-22.92,3.88
1.177,0.04,0.07,1.13,53.21,-24.95,9.94
1.2,-0.02,-0.0,1.01,62.69,-23.45,1.3
1.219,0.01,-0.0,0.94,77.98,12.44,-27.59
1.237,0.09,0.01,0.87,74.85,41.48,-39.91
1.26,0.11,0.08,0.82,80.82,24.12,-19.42
1.279,0.08,0.22,1.04,71.08,17.02,-3.45
1.297,0.02,0.24,1.03,59.05,17.54,2.49
1.317,-0.03,0.2,0.97,75.94,12.69,3.48
1.339,-0.02,0.27,1.03,81.31,3.28,5.57
1.358,-0.02,0.31,1.05,67.08,-1.33,6.85
1.377,-0.04,0.38,1.12,64.35,-8.29,10.27
1.399,-0.07,0.37,1.22,51.59,-17.48,6.43
1.418,-0.02,0.33,1.15,56.89,-19.89,-0.66
1.437,0.09,0.32,1.11,55.89,-16.6,-1.48
1.459,0.12,0.3,1.04,59.07,3.3,-2.96
1.478,0.1,0.32,1.04,53.66,17.8,-1.66
1.497,0.05,0.34,1.02,55.4,16.99,2.26
1.52,-0.06,0.39,1.05,55.82,-3.04,4.63
1.538,0.01,0.43,1.09,47.88,-4.93,9.77
1.556,-0.03,0.43,1.08,38.55,-7.27,9.69
1.58,-0.04,0.4,1.01,43.3,-4.47,2.84
1.599,0.0,0.42,0.98,46.21,3.74,-3.92
1.617,0.02,0.44,0.99,39.66,12.49,-4.99
1.637,0.02,0.44,0.94,39.05,12.23,-4.29
1.659,0.03,0.47,0.97,39.44,11.13,-2.76
1.678,0.0,0.48,0.97,36.75,7.6,-0.53
1.697,-0.04,0.48,0.93,35.98,2.73,-0.31
1.719,-0.04,0.52,1.0,29.73,-2.02,-2.72
1.738,-0.03,0.49,0.95,24.66,-9.74,-2.63
1.757,0.08,0.51,0.93,24.61,-2.37,-1.94
1.779,0.05,0.5,0.89,30.81,2.12,-3.85
1.798,-0.0,0.49,0.86,31.3,7.04,-3.77
1.816,-0.03,0.53,0.89,28.75,0.76,-2.87
1.84,0.0,0.57,1.0,22.46,-3.89,-5.45
1.858,-0.02,0.54,0.91,21.54,-3.44,-8.23
1.876,-0.05,0.54,0.9,24.53,-3.88,-14.34
1.9,-0.03,0.55,0.92,19.95,-15.08,-11.37
1.918,0.0,0.53,0.83,16.41,-13.82,-9.77
1.937,0.01,0.52,0.65,26.99,-11.69,-10.72
1.96,-0.04,0.52,0.74,37.63,-8.0,-11.08
1.979,-0.04,0.56,0.75,34.75,-16.93,-7.98
1.996,0.0,0.59,0.8,36.64,-28.81,-8.87
2.02,0.14,0.63,0.82,26.12,-23.5,0.69
2.039,0.1,0.6,0.81,28.29,-20.61,5.3
2.058,0.08,0.64,0.81,31.25,-4.14,3.34
2.08,0.03,0.65,0.82,28.06,-3.56,1.77
2.099,0.09,0.69,0.95,9.83,-4.5,4.27
2.117,0.13,0.64,0.87,16.75,-4.55,0.18
2.14,0.12,0.64,0.85,21.88,2.34,3.51
2.157,0.05,0.69,0.94,19.18,7.5,2.81
2.176,0.06,0.7,0.99,9.42,6.31,2.24
2.197,0.07,0.69,0.97,2.89,-0.96,3.77
2.217,0.07,0.65,0.91,4.55,3.44,5.3
2.236,0.04,0.66,0.89,5.18,7.74,3.79
2.259,-0.0,0.67,0.91,2.79,11.8,2.63
2.278,-0.01,0.68,0.96,-6.12,6.61,0.87
2.298,0.01,0.69,0.95,-10.9,-3.11,0.9
2.319,0.08,0.67,0.91,-13.42,2.06,1.01
2.338,0.03,0.66,0.86,-11.94,8.03,2.66
2.357,-0.01,0.74,1.08,-24.81,6.67,1.08
2.38,0.03,0.69,1.03,-37.69,-6.79,2.89
2.399,0.04,0.67,1.0,-41.6,-4.56,2.34
2.417,0.07,0.59,0.85,-40.64,3.1,0.95
2.437,0.08,0.59,0.78,-37.92,8.5,6.49
2.459,0.02,0.59,0.78,-37.5,11.01,6.82
2.478,-0.04,0.61,0.85,-38.98,5.82,5.53
2.497,-0.03,0.6,0.84,-42.32,2.84,0.81
2.519,0.02,0.55,0.77,-36.29,1.74,0.15
2.538,0.03,0.52,0.76,-30.76,2.46,2.21
2.557,-0.01,0.54,0.81,-30.43,-1.69,1.4
2.58,0.05,0.58,0.94,-38.66,-9.48,1.11
2.598,0.09,0.53,0.91,-46.61,-15.66,4.11
2.618,0.13,0.48,0.78,-35.4,-9.34,8.41
2.64,0.06,0.47,0.81,-28.76,-5.08,10.35
2.658,0.04,0.48,0.88,-27.16,-5.08,7.82
2.677,0.09,0.48,0.9,-33.44,2.05,6.32
2.7,0.08,0.46,0.86,-31.82,-3.1,7.98
2.719,0.07,0.45,0.83,-26.38,-6.43,7.68
2.738,0.03,0.45,0.85,-22.67,-8.38,4.82
2.757,0.07,0.44,0.84,-24.89,-5.27,3.04
2.779,0.1,0.44,0.86,-22.64,-0.58,3.76
2.798,0.1,0.43,0.86,-18.6,2.78,3.71
2.817,0.07,0.44,0.87,-12.76,2.92,4.75
2.839,0.05,0.46,0.94,-18.52,-1.53,6.09
2.858,0.07,0.45,0.93,-22.12,-2.78,7.19
2.877,0.07,0.4,0.89,-19.62,-3.19,5.79
2.9,0.08,0.38,0.87,-13.02,-1.04,4.43
2.918,0.09,0.39,0.88,-12.43,5.45,5.73
2.937,0.07,0.39,0.88,-13.89,7.28,5.59
2.96,0.04,0.38,0.84,-11.83,6.52,3.8
2.979,0.07,0.37,0.83,-5.1,-0.5,2.82
2.998,0.04,0.39,0.86,-0.29,-1.6,1.71
3.017,0.08,0.39,0.91,-4.85,4.12,0.41
3.037,0.09,0.39,0.94,-7.25,7.85,0.67
3.056,0.1,0.37,0.9,-5.01,4.99,1.66
3.076,0.06,0.37,0.88,-0.72,1.68,2.53
3.096,0.06,0.37,0.88,-0.34,3.39,2.23
3.116,0.03,0.42,0.96,-4.35,5.86,1.11
3.136,0.05,0.38,0.89,-6.67,-1.98,-0.17
3.16,0.08,0.37,0.86,0.92,-2.4,1.37
3.176,0.03,0.4,0.95,0.61,-5.51,-0.14
3.2,0.05,0.37,0.91,-3.02,-1.88,-1.59
3.219,0.07,0.38,0.88,0.69,-4.43,-2.15
3.237,0.08,0.39,0.94,2.31,-7.69,-1.02
3.257,0.07,0.42,0.98,3.79,-6.41,-1.48
3.279,0.08,0.42,1.0,-8.93,-7.1,-2.27
3.298,0.12,0.38,0.94,-4.35,-9.22,-1.04
3.317,0.09,0.39,0.95,-2.69,-4.64,-1.21
3.34,0.11,0.37,0.92,-1.04,0.47,-0.89
3.358,0.08,0.39,1.0,-7.24,4.49,0.21
3.376,0.08,0.36,0.93,-3.95,0.47,0.38
3.396,0.05,0.38,0.96,0.4,3.8,-0.18
3.417,0.07,0.38,0.94,-3.33,3.42,-1.02
3.44,0.07,0.37,0.9,-1.13,8.38,0.24
3.456,-0.01,0.42,0.99,-2.76,-2.2,-2.7
3.48,0.08,0.38,0.95,-3.77,-6.24,-3.22
3.498,0.12,0.39,0.97,-2.6,-3.56,-3.48
3.518,0.14,0.37,0.93,-4.12,3.73,-2.66
3.535,0.13,0.37,0.9,-1.39,12.67,-0.81
3.559,0.06,0.39,0.92,-1.34,7.69,-0.26
3.578,0.06,0.38,0.92,-2.38,3.15,0.0
3.596,0.05,0.38,0.92,-0.95,0.89,-1.91
3.62,0.1,0.38,0.94,-2.85,1.89,-2.29
3.639,0.11,0.39,0.93,-2.73,2.81,-0.58
3.658,0.08,0.41,1.0,-5.02,0.69,-0.58
3.676,0.08,0.37,0.95,-7.11,-4.03,-0.9
3.699,0.11,0.36,0.93,-5.34,1.21,-2.03
3.718,0.11,0.37,0.96,-4.34,-0.5,0.38
3.737,0.09,0.38,0.94,-5.47,6.46,0.66
3.757,0.02,0.38,0.96,-7.5,2.29,1.62
3.776,0.02,0.36,0.91,-6.92,-5.19,-0.34
3.8,0.08,0.35,0.9,-2.84,-4.08,-2.11
3.819,0.09,0.38,0.94,-3.22,-1.01,-0.64
3.837,0.08,0.37,0.93,-5.92,0.2,0.06
3.856,0.06,0.37,0.93,-5.27,0.21,0.09
3.876,0.05,0.37,0.95,-3.83,-8.29,0.72
3.9,0.07,0.36,0.91,-3.13,-3.65,-2.15
3.919,0.11,0.35,0.91,-1.5,0.63,-1.8
3.937,0.1,0.37,0.94,-1.69,0.9,0.76
3.957,0.07,0.38,0.99,-3.28,0.11,-0.31
3.98,0.08,0.36,0.95,-4.85,-2.41,0.05
