timestamp,acce_x,acce_y,acce_z,gyro_x,gyro_y,gyro_z
0.002,0.07,0.12,0.97,-7.88,-2.0,0.64
0.012,0.07,0.12,0.95,-2.64,-5.71,-0.15
0.019,0.08,0.11,0.94,2.81,-5.82,-0.05
0.023,0.07,0.12,1.0,3.88,2.08,-3.86
0.027,0.09,0.13,1.03,-1.33,9.01,-3.42
0.03,0.07,0.13,0.97,-1.1,7.27,-2.03
0.032,0.06,0.13,1.0,-0.15,-4.73,-2.21
0.035,0.08,0.12,0.98,1.48,-8.43,-0.81
0.037,0.07,0.13,0.96,4.29,-4.79,-3.42
0.039,0.1,0.14,1.05,-0.15,7.97,-5.76
0.042,0.1,0.15,1.05,-0.7,10.78,-3.25
0.044,0.09,0.15,1.04,-0.89,5.95,-1.3
0.046,0.07,0.13,1.04,-0.92,-8.11,-0.11
0.048,0.05,0.14,1.0,-0.67,-18.29,-1.95
0.05,0.11,0.14,1.0,-2.26,-7.86,-2.15
0.052,0.1,0.15,0.97,-1.69,0.79,0.27
0.054,0.08,0.13,0.99,0.23,7.82,-0.52
0.057,0.06,0.14,1.0,0.05,8.34,-1.31
0.06,0.06,0.15,1.11,-4.34,0.9,0.06
0.064,0.11,0.15,1.13,-15.59,-15.22,5.71
0.066,0.08,0.15,1.03,-17.74,-32.82,9.44
0.068,0.05,0.16,1.15,-20.32,-42.66,8.6
0.07,0.14,0.12,1.11,-30.58,-44.75,7.25
0.075,0.2,0.15,1.08,-25.53,-49.63,15.1
0.077,0.21,0.14,1.18,-22.05,-59.65,25.22
0.079,0.28,0.19,1.17,-25.45,-87.57,38.78
0.081,0.23,0.15,1.25,-26.31,-108.84,47.37
0.083,0.22,0.11,1.31,-35.92,-151.88,52.12
0.085,0.24,0.09,1.33,-59.57,-170.18,53.98
0.088,0.32,0.1,1.13,-73.89,-194.32,54.72
0.09,0.33,0.04,1.18,-69.25,-216.52,68.75
0.093,0.25,-0.01,1.14,-65.71,-275.19,74.35
0.096,0.21,-0.07,0.96,-66.44,-333.63,70.66
0.098,0.3,-0.11,0.77,-58.79,-369.82,55.07
0.101,0.47,-0.14,0.68,-61.83,-361.74,42.9
0.104,0.61,-0.15,0.5,-58.93,-332.5,40.73
0.106,0.63,-0.17,0.58,-84.2,-304.43,40.05
0.109,0.61,-0.17,0.32,-86.87,-301.95,34.87
0.111,0.6,-0.23,0.02,-58.73,-299.11,29.65
0.114,0.7,-0.3,-0.07,-51.25,-309.16,27.85
0.117,0.66,-0.33,-0.03,-41.36,-316.27,28.7
0.12,0.53,-0.26,0.04,-61.3,-376.24,22.03
0.124,0.57,-0.26,-0.39,-58.09,-378.7,7.08
0.128,0.61,-0.24,-0.48,-68.44,-373.13,-6.09
0.132,0.72,-0.22,-0.59,-51.86,-345.85,3.95
0.136,0.68,-0.16,-0.44,-79.05,-346.75,6.87
0.14,0.65,-0.18,-0.73,-72.6,-270.63,12.08
0.147,0.5,-0.18,-0.58,-73.31,-204.4,4.55
0.149,0.47,-0.15,-0.6,-70.66,-220.09,-1.6
0.152,0.55,-0.1,-0.75,-69.08,-225.97,9.8
0.154,0.61,-0.07,-0.85,-120.27,-189.27,7.31
0.156,0.74,0.03,-1.13,-120.87,-136.38,23.92
0.158,0.47,-0.04,-1.18,-69.11,-81.79,35.63
0.161,0.19,-0.09,-0.99,-39.08,-76.72,16.23
0.163,0.31,-0.01,-0.92,-43.88,-87.02,-1.56
0.165,0.46,0.09,-0.96,-77.92,-101.05,1.51
0.167,0.49,0.03,-1.08,-79.8,-98.35,26.34
0.169,0.1,0.03,-1.04,-79.54,-82.41,25.82
0.171,0.03,0.01,-1.08,-74.72,-114.92,3.25
0.174,0.11,0.01,-1.17,-63.04,-107.77,-3.45
0.176,0.2,0.05,-1.14,-58.12,-82.37,-1.31
0.178,0.24,0.1,-1.17,-53.98,-27.31,16.09
0.18,-0.02,0.07,-0.99,-55.34,-5.66,16.18
0.182,-0.11,0.09,-0.98,-66.11,-26.7,-7.05
0.185,0.02,0.16,-1.11,-64.37,-44.12,-19.98
0.187,0.11,0.19,-1.18,-54.6,-40.26,-17.59
0.19,0.02,0.19,-0.99,-51.97,-50.95,-17.39
0.192,0.12,0.23,-1.15,-45.13,-45.22,-17.47
0.194,0.09,0.26,-1.13,-39.92,-31.39,-9.1
0.197,0.12,0.26,-1.18,-29.69,-25.98,-3.24
0.202,0.07,0.25,-1.15,-30.02,-41.19,-6.52
0.204,0.08,0.17,-1.07,-18.85,-27.76,-3.19
0.206,-0.08,0.23,-1.02,-22.41,-23.88,-13.59
0.209,-0.09,0.29,-0.99,-35.94,-58.89,-26.98
0.211,0.19,0.38,-1.08,-42.06,-71.92,-19.53
0.213,0.01,0.33,-1.09,-47.85,-70.63,-8.43
0.216,-0.07,0.29,-1.22,-27.22,-42.95,-6.98
0.219,-0.09,0.29,-1.08,-6.64,-17.83,-11.34
0.221,-0.08,0.32,-0.98,-13.13,-44.67,-19.18
0.223,0.1,0.33,-1.12,-6.32,-27.56,-8.43
0.225,-0.07,0.3,-1.01,-6.11,-7.73,0.08
0.227,-0.05,0.28,-1.06,6.46,10.05,2.98
0.23,-0.18,0.26,-0.97,7.13,18.44,-1.08
0.233,-0.2,0.3,-1.07,6.82,10.53,-9.24
0.243,-0.1,0.33,-1.08,13.31,8.73,-8.61
0.248,-0.09,0.32,-1.07,19.98,20.9,-2.72
0.254,-0.1,0.3,-1.02,22.98,33.07,0.17
0.259,-0.11,0.27,-0.96,18.4,20.7,-6.03
0.262,-0.04,0.27,-0.98,14.81,17.95,-8.17
0.267,0.01,0.27,-1.03,11.05,27.51,-2.67
0.27,-0.03,0.26,-1.05,15.57,30.34,1.77
0.275,-0.04,0.24,-1.07,20.85,21.21,1.21
0.277,-0.05,0.25,-1.04,28.14,35.83,-0.96
0.279,-0.02,0.24,-0.95,25.66,23.98,-2.7
0.282,0.01,0.23,-0.92,18.26,27.11,-1.74
0.284,0.06,0.24,-0.92,7.44,18.75,1.89
0.286,-0.03,0.23,-0.96,4.98,8.6,0.85
0.288,0.02,0.21,-1.02,7.25,-5.51,-2.46
0.292,0.02,0.22,-0.99,3.79,-9.91,-4.96
0.294,0.06,0.21,-0.97,-3.21,-6.21,-1.74
0.297,0.05,0.19,-1.04,-5.25,-1.47,0.66
0.3,-0.02,0.17,-1.02,0.31,-6.78,-1.24
0.302,-0.03,0.17,-0.96,-2.27,-10.35,-3.24
0.304,0.03,0.18,-0.98,-6.84,-9.04,-0.96
0.307,-0.0,0.19,-0.97,-6.75,-6.09,3.54
0.309,-0.04,0.17,-1.0,-4.85,3.39,3.83
0.311,-0.08,0.2,-0.91,-6.49,-6.08,-2.41
0.313,-0.05,0.22,-0.95,-11.76,-10.9,-4.43
0.316,-0.01,0.23,-1.03,-12.2,-7.82,-3.34
0.318,-0.03,0.23,-1.02,-12.0,-4.53,-2.85
0.32,-0.02,0.24,-1.04,-4.63,-1.73,-2.67
0.323,-0.03,0.24,-1.02,-4.52,-5.98,-5.82
0.325,0.0,0.24,-1.02,-1.82,-11.68,-5.82
0.327,0.02,0.23,-1.05,0.55,-4.23,-2.58
0.329,0.02,0.22,-0.98,-2.18,-3.15,-1.97
0.331,0.02,0.23,-1.0,-4.47,-1.24,0.99
0.333,0.01,0.23,-1.04,-5.24,1.44,2.41
0.336,-0.05,0.23,-1.03,-1.24,4.15,1.76
0.341,-0.05,0.24,-0.96,-5.05,-9.48,-3.16
0.346,-0.03,0.25,-0.99,-6.23,-19.13,-3.08
0.35,-0.01,0.24,-1.05,-4.84,-19.21,-2.24
0.368,-0.03,0.24,-1.05,-1.27,-12.37,0.76
0.372,-0.05,0.22,-0.96,-2.6,-11.37,0.34
0.375,-0.08,0.22,-0.98,-3.88,-15.16,-2.9
0.378,-0.09,0.23,-1.0,-5.5,-13.45,-4.5
0.382,-0.06,0.24,-0.99,-3.24,-20.69,-5.01
0.385,-0.06,0.25,-1.01,-3.94,-18.96,-2.43
0.389,-0.02,0.25,-1.04,-5.59,-19.05,-0.84
0.392,-0.07,0.25,-1.04,0.02,-23.08,1.1
0.396,-0.09,0.23,-1.07,0.72,-7.13,2.7
0.399,-0.1,0.23,-1.06,2.82,13.27,3.02
0.402,-0.1,0.24,-0.99,1.73,20.96,2.27
0.404,-0.07,0.23,-1.0,-0.87,13.27,0.9
0.406,-0.03,0.25,-1.06,-2.63,15.34,1.48
0.408,-0.03,0.24,-1.09,-0.43,15.42,2.5
0.41,-0.02,0.24,-1.01,1.68,12.21,3.42
0.412,0.01,0.25,-1.02,0.11,12.93,7.02
0.415,0.01,0.24,-1.07,2.93,27.66,11.94
0.417,-0.04,0.24,-1.02,2.43,27.05,11.15
0.419,-0.02,0.23,-1.01,5.3,27.37,11.48
0.421,0.0,0.22,-1.03,2.38,26.03,9.98
0.423,-0.01,0.22,-1.04,6.61,25.54,9.08
0.425,0.01,0.23,-1.01,5.68,31.59,9.21
0.427,-0.01,0.23,-1.01,7.59,34.53,8.37
0.429,0.03,0.22,-1.06,4.67,44.76,11.11
0.431,0.04,0.21,-1.15,14.98,53.18,11.02
0.433,0.01,0.22,-1.1,23.66,62.64,6.7
0.435,0.07,0.19,-0.94,19.11,37.36,0.92
0.437,0.17,0.23,-1.04,10.05,33.21,5.92
0.439,0.23,0.23,-1.15,12.11,59.65,17.34
0.441,0.23,0.2,-1.16,13.28,88.73,27.34
0.443,0.21,0.15,-1.16,22.31,128.95,28.84
0.445,0.16,0.2,-1.07,22.79,120.12,24.46
0.447,0.22,0.14,-1.05,23.42,117.88,18.32
0.449,0.31,0.16,-1.05,16.69,108.31,16.09
0.451,0.37,0.22,-1.1,22.17,110.17,24.7
0.453,0.43,0.15,-1.05,28.02,111.65,30.03
0.455,0.33,0.13,-0.95,21.97,123.21,26.2
0.457,0.49,0.12,-0.99,23.05,132.63,20.49
0.46,0.58,0.13,-1.01,30.29,154.34,25.3
0.462,0.54,0.12,-0.92,33.47,157.91,26.99
0.464,0.51,0.08,-0.81,26.89,166.21,21.48
0.485,0.56,0.05,-0.82,21.04,123.71,14.43
0.503,0.56,0.01,-0.81,29.85,81.69,4.58
0.522,0.69,0.03,-0.66,30.38,44.49,1.89
0.545,0.77,0.06,-0.63,12.6,35.28,6.93
0.563,0.91,0.03,-0.83,1.15,57.77,18.61
0.584,0.8,0.02,-0.83,7.36,85.05,26.14
0.605,0.77,0.01,-0.88,15.62,110.05,29.05
0.624,0.7,-0.03,-0.71,23.1,111.97,24.02
0.642,0.73,-0.02,-0.59,21.85,93.63,20.73
0.665,0.76,-0.04,-0.55,14.5,69.97,20.85
0.683,0.84,-0.04,-0.69,19.79,67.59,25.33
0.703,0.85,-0.04,-0.61,21.36,84.0,28.29
0.725,0.78,-0.08,-0.56,13.01,98.79,26.29
0.743,0.74,-0.09,-0.49,7.08,97.04,16.76
0.762,0.83,-0.09,-0.51,11.69,77.54,10.75
0.79,0.97,-0.05,-0.62,25.77,79.28,14.41
0.807,1.0,-0.06,-0.47,19.5,110.03,29.04
0.826,0.92,-0.09,-0.52,27.95,126.9,35.15
0.845,0.84,-0.13,-0.31,20.03,99.88,27.16
0.862,0.9,-0.16,-0.28,14.15,69.19,20.82
0.886,1.14,-0.1,-0.34,-0.26,83.56,32.38
0.904,1.12,-0.13,-0.34,10.79,122.95,48.24
0.923,0.89,-0.2,-0.3,20.29,111.66,44.81
0.945,0.91,-0.2,-0.21,15.31,88.82,33.37
0.969,0.99,-0.2,-0.23,17.15,93.86,33.33
0.982,1.04,-0.18,-0.12,-2.15,112.76,35.74
1.005,0.99,-0.24,-0.12,4.37,116.52,40.43
1.024,0.95,-0.28,-0.1,12.38,108.35,39.82
1.042,0.87,-0.29,-0.03,20.99,101.13,31.39
1.065,0.93,-0.27,0.06,18.23,82.41,21.88
1.084,0.96,-0.26,0.1,4.87,92.17,21.59
1.103,1.03,-0.27,0.03,3.18,113.69,28.84
1.125,0.89,-0.31,0.07,18.41,87.6,27.56
1.144,0.84,-0.33,0.11,36.67,62.93,16.64
1.162,0.97,-0.3,0.18,28.15,51.19,10.35
1.185,1.1,-0.26,0.27,0.53,93.63,19.63
1.204,0.97,-0.34,0.21,0.23,103.01,25.91
1.224,0.8,-0.35,0.26,17.28,77.88,17.97
1.246,0.85,-0.34,0.32,28.0,37.71,8.99
1.264,1.01,-0.31,0.31,18.85,58.85,13.5
1.284,1.09,-0.28,0.34,-7.57,115.27,28.4
1.306,0.92,-0.35,0.29,-1.1,131.85,39.42
1.324,0.7,-0.4,0.33,26.87,90.69,29.16
1.342,0.71,-0.38,0.42,42.76,39.89,17.68
1.365,0.81,-0.35,0.47,27.57,42.79,12.38
1.384,0.94,-0.33,0.42,15.88,88.17,24.5
1.403,0.84,-0.35,0.55,2.49,121.48,33.08
1.426,0.72,-0.39,0.45,14.34,104.29,33.08
1.444,0.61,-0.42,0.49,45.36,64.72,21.89
1.463,0.69,-0.41,0.55,47.05,52.31,11.8
1.485,0.75,-0.36,0.62,29.37,77.63,12.41
1.504,0.79,-0.32,0.71,12.73,128.79,22.73
1.523,0.61,-0.37,0.66,22.31,112.37,25.02
1.545,0.52,-0.38,0.67,42.23,67.68,11.33
1.564,0.61,-0.37,0.84,26.08,48.06,8.58
1.583,0.69,-0.35,0.74,3.8,88.46,12.85
1.618,0.56,-0.37,0.74,8.08,79.98,14.52
1.639,0.51,-0.38,0.68,28.76,50.05,9.31
1.648,0.58,-0.35,0.82,32.82,40.5,7.42
1.666,0.57,-0.33,0.86,22.18,57.97,10.09
1.684,0.57,-0.31,0.8,10.92,91.07,12.5
1.703,0.48,-0.36,0.71,8.24,83.16,13.57
1.726,0.45,-0.32,0.71,32.61,58.41,15.13
1.753,0.4,-0.31,0.8,44.84,55.22,12.7
1.766,0.4,-0.32,1.02,33.02,68.99,9.44
1.782,0.34,-0.3,0.88,20.61,79.73,5.73
1.804,0.36,-0.33,0.78,39.42,48.56,7.69
1.823,0.41,-0.27,0.77,48.44,46.85,8.0
1.843,0.44,-0.24,0.85,48.75,86.58,16.5
1.865,0.23,-0.29,0.98,44.15,123.73,13.28
1.883,0.21,-0.27,0.99,40.67,72.93,6.15
1.902,0.28,-0.22,0.97,55.94,20.96,9.45
1.925,0.22,-0.22,1.05,38.15,14.46,5.45
1.943,0.28,-0.17,0.94,34.31,31.21,0.69
1.963,0.3,-0.18,0.87,45.34,53.16,1.36
1.986,0.29,-0.18,0.99,47.22,44.55,4.89
2.004,0.24,-0.17,0.95,41.65,43.92,8.56
2.023,0.15,-0.16,1.12,31.51,42.85,7.6
2.046,0.11,-0.16,1.02,25.18,28.85,-0.05
2.064,0.12,-0.15,0.92,32.31,18.18,-2.43
2.083,0.11,-0.15,0.93,35.51,23.76,-8.99
2.106,0.22,-0.1,1.05,29.94,43.66,-4.63
2.124,0.18,-0.08,1.13,11.15,28.05,4.84
2.143,0.1,-0.1,1.01,-0.7,8.81,1.07
2.166,0.15,-0.09,0.88,3.13,-11.42,0.5
2.185,0.17,-0.08,0.88,16.53,-7.71,2.23
2.203,0.14,-0.09,0.96,14.31,20.31,-0.21
2.222,0.16,-0.09,0.95,27.74,39.13,2.15
2.245,0.01,-0.09,1.04,23.44,29.66,-0.58
2.263,0.02,-0.08,1.21,14.93,5.1,-3.68
2.283,0.03,-0.07,1.13,-0.31,-17.92,-7.39
2.305,0.13,-0.06,1.12,-4.15,-21.76,-7.83
2.323,0.18,-0.1,1.04,-8.5,-13.27,-5.83
2.342,0.16,-0.05,0.94,-2.5,-16.4,-7.92
2.365,0.14,-0.04,1.06,-0.34,-10.0,-7.6
2.383,0.19,-0.06,1.01,1.82,1.66,-7.47
2.402,0.13,-0.08,1.03,2.87,-1.82,-4.47
2.425,0.14,-0.07,1.12,0.87,-5.1,-3.54
2.443,0.22,-0.11,0.99,2.53,-0.26,2.4
2.463,0.12,-0.05,0.99,7.25,2.66,9.98
2.483,0.07,-0.09,1.02,2.43,1.04,1.74
2.502,0.06,-0.05,1.03,-5.57,2.55,-10.82
2.526,0.13,-0.06,1.01,-0.24,4.43,-9.27
2.544,0.1,-0.08,1.17,-5.3,-2.18,-8.34
2.563,0.12,-0.03,1.07,-15.3,-17.11,-8.63
2.586,0.15,-0.08,1.0,-1.79,-26.55,-2.37
2.605,0.15,-0.09,1.0,-1.63,-21.25,-5.22
2.623,0.12,-0.09,1.05,-5.42,-1.91,-8.43
2.646,0.12,-0.07,1.02,-5.3,7.98,-14.79
2.664,0.13,-0.08,1.03,-4.61,1.92,-16.21
2.683,0.18,-0.09,1.07,-6.08,4.63,-10.32
2.706,0.19,-0.07,1.0,-3.76,-1.37,-6.73
2.724,0.18,-0.06,0.97,1.22,-3.62,-3.82
2.742,0.12,-0.05,1.03,4.05,4.43,-5.89
2.762,0.21,-0.05,1.22,-8.38,27.85,-3.34
2.784,0.16,-0.06,0.96,-12.55,5.82,-2.73
2.803,0.15,-0.09,1.02,-6.23,-9.08,-0.69
2.823,0.13,-0.08,1.02,-11.1,-14.82,0.84
2.845,0.12,-0.08,1.0,-11.15,-11.83,0.05
2.863,0.14,-0.1,0.98,-6.14,-0.11,-0.17
2.883,0.13,-0.09,0.99,-3.66,10.79,-0.89
2.905,0.13,-0.1,1.03,-4.66,16.53,-3.28
2.924,0.12,-0.1,1.0,-6.02,9.69,-3.13
2.943,0.09,-0.04,0.99,-5.48,-4.03,-5.66
2.965,0.13,-0.09,1.12,3.24,-4.15,-5.98
2.983,0.16,-0.08,1.01,0.17,6.76,-4.79
3.002,0.11,-0.08,1.02,2.99,6.58,-5.82
3.025,0.05,-0.03,1.09,-2.99,-0.99,-9.47
3.044,0.18,-0.07,1.04,-15.94,-3.8,-8.08
3.063,0.15,-0.09,1.04,-18.9,-10.06,-7.37
3.085,0.16,-0.1,1.01,-17.44,-17.56,-4.06
3.104,0.18,-0.11,0.92,-11.69,-18.85,-1.92
3.123,0.15,-0.11,0.93,-3.57,-12.05,-1.66
3.145,0.1,-0.03,0.96,-8.9,1.92,-6.7
3.164,0.22,-0.13,1.08,1.44,19.92,-10.73
3.183,0.2,-0.1,0.97,-2.69,18.55,-5.56
3.212,0.19,-0.11,0.97,2.34,1.82,-1.79
3.226,0.18,-0.1,0.96,7.13,-7.5,0.08
3.246,0.19,-0.1,1.03,6.12,-3.25,-0.17
3.267,0.18,-0.07,1.03,1.86,16.56,-1.28
3.284,0.15,-0.09,1.02,0.0,14.21,-3.6
3.303,0.13,-0.09,1.05,0.05,1.16,-4.44
3.326,0.17,-0.09,1.03,-0.05,-13.28,-1.19
3.344,0.15,-0.09,1.02,-0.72,-14.06,1.69
3.364,0.14,-0.09,1.0,-0.35,-6.99,1.68
3.386,0.11,-0.09,1.03,-2.89,0.05,-2.53
3.404,0.14,-0.1,1.0,-2.02,7.19,-3.77
3.423,0.17,-0.08,0.98,0.43,3.28,-2.67
3.442,0.15,-0.09,1.0,2.05,-1.63,-1.07
3.465,0.13,-0.08,0.97,4.89,-5.86,-0.64
3.483,0.11,-0.06,0.98,5.19,-1.5,-3.57
3.502,0.16,-0.07,0.98,1.54,4.17,-9.18
3.525,0.14,-0.08,0.97,2.9,10.11,-8.4
3.544,0.17,-0.06,0.99,2.49,6.44,-7.37
3.563,0.17,-0.07,1.02,1.18,5.37,-4.66
3.585,0.16,-0.05,1.04,-3.91,8.31,-2.4
3.604,0.13,-0.07,1.02,-1.13,0.9,-0.66
3.622,0.13,-0.07,1.01,2.2,-1.97,-1.28
3.646,0.14,-0.08,1.04,1.1,-4.35,-0.81
3.664,0.11,-0.09,1.0,1.04,-4.31,-2.66
3.682,0.12,-0.08,1.03,-2.82,2.37,-5.66
3.706,0.15,-0.08,1.01,-4.0,0.49,-6.23
3.725,0.18,-0.08,1.04,-3.28,2.82,-5.28
3.744,0.18,-0.07,1.06,-11.86,5.05,-2.89
3.763,0.16,-0.08,1.03,-11.92,0.27,-0.43
3.785,0.13,-0.09,0.98,-8.38,-14.27,0.02
3.803,0.15,-0.09,0.93,-2.72,-18.23,-0.11
3.823,0.16,-0.09,0.94,2.95,-3.16,-0.43
3.845,0.16,-0.09,1.01,2.95,12.66,-0.72
3.864,0.11,-0.09,1.01,2.69,19.56,-2.52
3.884,0.1,-0.08,1.04,-2.9,6.85,-5.34
3.905,0.12,-0.09,1.0,-1.19,-8.61,-3.16
3.924,0.16,-0.08,1.0,1.08,-6.64,-1.8
3.943,0.17,-0.07,1.01,2.99,-0.24,-0.24
3.966,0.15,-0.08,1.02,-0.98,7.08,-3.74
3.984,0.15,-0.07,1.02,-5.77,10.41,-5.6
