timestamp,acce_x,acce_y,acce_z,gyro_x,gyro_y,gyro_z
0.005,0.95,-0.09,0.38,-3.68,2.58,-1.83
0.014,1.0,-0.11,0.34,-6.17,-4.87,-5.11
0.022,0.95,-0.1,0.31,-4.98,0.95,-2.26
0.028,0.93,-0.1,0.35,-0.15,1.02,-0.63
0.035,0.99,-0.11,0.35,2.66,-3.07,-1.57
0.038,0.99,-0.1,0.35,-2.14,4.0,-2.12
0.04,0.99,-0.09,0.35,-1.85,1.57,-2.49
0.042,0.94,-0.1,0.36,0.95,5.66,0.5
0.044,0.95,-0.11,0.39,0.15,2.14,-0.05
0.046,0.93,-0.09,0.41,-0.64,-3.48,-2.6
0.049,0.99,-0.08,0.36,-6.4,-3.68,-5.15
0.051,1.01,-0.09,0.35,-7.13,-7.97,-6.43
0.053,0.99,-0.1,0.33,-5.04,-0.34,-2.85
0.055,0.98,-0.1,0.33,-2.82,0.14,-0.96
0.057,0.97,-0.1,0.36,-0.2,1.85,0.46
0.059,1.0,-0.1,0.33,-2.23,4.23,-0.55
0.061,0.99,-0.11,0.35,-2.64,2.73,-0.58
0.063,0.93,-0.11,0.37,0.95,6.96,2.72
0.065,0.92,-0.11,0.38,1.21,4.02,1.92
0.067,0.92,-0.11,0.41,0.61,-0.27,-0.64
0.069,0.96,-0.09,0.39,-4.5,0.95,-3.97
0.071,1.02,-0.1,0.33,-9.1,-1.79,-6.63
0.073,0.98,-0.1,0.33,-6.35,4.56,-3.42
0.075,0.99,-0.1,0.34,-2.17,4.6,-0.63
0.077,0.96,-0.09,0.37,-0.96,3.54,0.21
0.079,0.98,-0.1,0.35,-1.53,-5.51,-2.38
0.081,0.95,-0.11,0.4,3.44,-3.74,0.92
0.083,0.96,-0.11,0.39,1.79,-2.63,0.87
0.085,0.93,-0.1,0.4,-1.37,-1.39,0.78
0.087,0.93,-0.13,0.4,-4.11,0.5,-0.23
0.089,0.97,-0.12,0.35,-7.97,-10.93,-7.88
0.091,0.97,-0.12,0.35,-8.5,-3.54,-7.18
0.093,0.99,-0.1,0.33,-5.34,0.95,-6.06
0.095,0.99,-0.09,0.34,-4.15,1.57,-4.78
0.097,0.98,-0.09,0.37,0.93,4.72,-1.36
0.099,0.98,-0.1,0.36,0.12,8.06,0.55
0.101,0.97,-0.11,0.39,-0.34,0.96,0.26
0.103,0.96,-0.11,0.38,-2.63,3.74,1.39
0.105,0.93,-0.1,0.38,-4.55,3.88,0.66
0.107,0.97,-0.11,0.38,-4.76,0.27,-1.05
0.109,0.97,-0.11,0.38,-4.9,-0.49,-1.15
0.111,0.96,-0.12,0.37,-3.37,4.0,0.89
0.113,0.95,-0.11,0.36,-5.8,-0.47,-0.95
0.115,0.95,-0.12,0.37,-4.32,-2.2,-0.78
0.117,0.94,-0.12,0.38,-4.0,2.18,-2.09
0.119,0.96,-0.12,0.4,-4.46,-1.37,-4.44
0.121,0.95,-0.12,0.39,-4.9,1.95,-3.71
0.123,0.97,-0.09,0.37,-8.02,3.44,-4.46
0.125,0.98,-0.08,0.39,-7.05,-0.11,-3.59
0.127,0.96,-0.09,0.42,-7.34,-0.6,-1.91
0.129,0.97,-0.11,0.43,-9.53,0.47,-0.38
0.131,1.0,-0.09,0.39,-12.89,2.69,1.45
0.133,0.93,-0.12,0.38,-17.74,2.38,1.31
0.135,0.98,-0.12,0.35,-18.06,2.72,0.67
0.137,0.97,-0.13,0.32,-19.62,3.05,-1.1
0.139,0.99,-0.13,0.32,-18.09,-0.2,-2.87
0.14,0.98,-0.13,0.37,-12.63,-1.89,-0.26
0.142,0.94,-0.13,0.42,-11.65,-2.82,2.58
0.145,0.93,-0.14,0.44,-13.85,-5.31,1.47
0.147,0.94,-0.12,0.47,-21.47,-1.25,-1.74
0.149,0.93,-0.07,0.51,-29.66,2.31,-4.78
0.151,0.91,-0.09,0.55,-38.4,-6.31,-4.09
0.152,0.93,-0.08,0.54,-49.74,-14.34,-6.66
0.154,0.95,-0.07,0.54,-67.22,-17.66,-11.98
0.156,1.03,-0.06,0.51,-84.34,-22.41,-20.56
0.158,0.97,-0.07,0.6,-94.96,-14.27,-18.58
0.16,0.91,-0.07,0.56,-115.31,-18.11,-15.83
0.162,0.89,-0.11,0.5,-128.41,-21.69,-15.53
0.165,0.88,-0.1,0.45,-155.54,-37.79,-20.81
0.167,1.04,-0.08,0.25,-177.22,-40.23,-29.37
0.169,1.07,-0.04,0.25,-180.73,-9.44,-29.01
0.171,1.01,-0.08,0.28,-171.22,-7.13,-24.76
0.173,1.03,-0.08,0.29,-164.08,-7.28,-17.69
0.174,0.9,-0.1,0.33,-181.21,-18.08,-9.59
0.176,0.97,-0.13,0.24,-201.05,-7.6,-8.32
0.178,0.91,-0.11,0.16,-213.24,16.46,-11.53
0.181,0.89,-0.11,0.12,-212.76,39.63,-18.52
0.183,0.9,-0.06,0.19,-205.88,46.69,-29.37
0.185,1.02,-0.09,0.12,-216.9,33.05,-43.4
0.187,0.98,-0.09,0.14,-209.45,24.5,-44.49
0.189,0.97,-0.08,0.17,-210.52,27.3,-41.95
0.191,0.92,-0.09,0.14,-215.94,26.99,-44.11
0.193,0.94,-0.09,0.15,-222.2,43.31,-46.98
0.195,0.97,-0.08,0.17,-228.35,68.44,-54.18
0.197,0.99,-0.07,0.12,-234.4,89.89,-64.09
0.199,0.95,-0.04,0.05,-222.55,90.98,-67.79
0.201,0.97,-0.06,-0.09,-198.35,38.29,-68.46
0.203,1.07,-0.03,-0.07,-155.65,-8.37,-60.64
0.205,1.15,-0.04,0.0,-116.55,-30.52,-55.42
0.206,1.12,-0.09,0.19,-99.68,16.67,-40.09
0.208,1.1,-0.09,0.08,-106.14,46.2,-30.38
0.21,0.96,-0.1,0.22,-105.33,59.77,-21.95
0.212,0.83,-0.08,0.23,-108.92,42.85,-18.03
0.214,1.03,-0.07,0.1,-142.23,-47.27,-37.48
0.216,1.12,-0.07,-0.11,-151.95,-98.95,-28.53
0.218,1.13,-0.09,-0.15,-142.32,-71.92,-18.49
0.219,1.11,-0.13,-0.17,-134.31,-31.98,-7.45
0.221,1.03,-0.16,-0.07,-112.12,8.23,6.26
0.223,1.07,-0.07,-0.29,-95.79,16.37,14.92
0.225,1.01,-0.06,-0.31,-70.78,21.69,30.11
0.227,0.96,-0.16,-0.1,-89.77,-15.94,-24.37
0.229,0.96,0.04,0.01,-64.12,16.41,-150.2
0.231,1.12,-0.02,-0.17,-93.15,-33.04,-67.21
0.233,1.2,-0.06,-0.21,-90.85,-44.18,-56.34
0.235,0.99,-0.02,-0.13,-74.82,-7.47,-23.91
0.236,1.09,-0.01,-0.15,-69.47,-15.92,-30.53
0.238,1.13,0.02,-0.16,-62.95,-15.02,-31.24
0.24,1.17,0.01,-0.2,-55.65,-8.63,-21.63
0.242,1.09,0.02,-0.21,-36.44,15.21,-3.68
0.244,1.11,-0.02,-0.24,-19.36,24.85,-0.76
0.246,0.96,-0.01,-0.03,-4.41,15.76,-10.7
0.248,1.02,0.01,0.04,-11.8,1.45,-18.58
0.25,1.11,0.02,-0.02,-30.66,-21.3,-33.73
0.251,1.21,0.05,-0.1,-35.82,-16.38,-30.82
0.253,1.18,0.02,-0.13,-21.11,-1.65,-26.18
0.255,1.09,-0.01,-0.07,-3.27,13.65,-0.78
0.257,1.0,-0.05,0.04,12.98,26.87,10.43
0.259,0.95,-0.05,0.04,11.08,19.07,10.12
0.261,1.07,-0.04,-0.06,-5.63,-17.47,-6.46
0.263,1.07,-0.02,-0.03,-7.77,-17.68,-9.65
0.265,1.11,-0.01,-0.05,-10.29,-22.56,-11.73
0.267,1.1,0.01,-0.08,-4.67,-14.6,-4.02
0.269,1.08,-0.02,-0.07,2.2,-5.66,1.5
0.271,1.0,-0.02,0.02,9.34,5.08,5.45
0.273,1.0,-0.04,-0.01,-0.2,5.82,4.23
0.274,1.07,-0.01,-0.07,-5.21,-0.98,-1.3
0.276,1.06,-0.0,-0.08,-9.36,6.34,-1.56
0.278,1.06,-0.02,-0.04,-9.48,16.47,2.44
0.28,1.03,-0.02,-0.06,-5.68,19.11,3.39
0.282,1.0,-0.04,0.03,1.05,12.34,4.34
0.284,0.97,-0.02,0.06,-3.98,2.79,0.78
0.286,1.05,-0.02,-0.02,-13.27,-15.37,-7.71
0.287,1.05,-0.02,-0.06,-17.39,-19.65,-10.78
0.289,1.07,-0.02,-0.06,-12.2,-11.02,-8.64
0.291,1.01,-0.02,-0.01,-2.38,-5.97,-5.01
0.293,1.07,0.0,-0.08,-0.89,-13.4,-5.94
0.295,1.02,-0.0,-0.04,2.41,-13.56,-4.93
0.297,1.01,-0.02,-0.03,1.92,-14.81,-6.18
0.299,1.01,-0.02,-0.07,-1.95,-12.7,-7.24
0.301,1.01,-0.02,-0.05,-2.23,-7.66,-9.54
0.303,0.96,0.03,0.0,-0.55,0.58,-9.77
0.305,1.0,0.0,-0.05,-6.12,-1.33,-13.86
0.307,1.02,-0.01,-0.01,-10.02,-8.34,-21.05
0.309,1.05,0.01,-0.03,-6.9,-8.4,-20.99
0.311,1.06,0.02,-0.05,-7.74,-12.66,-18.84
0.313,1.14,0.05,-0.11,-7.69,-9.94,-15.37
0.315,1.09,0.05,-0.08,-12.56,-1.02,-6.9
0.316,1.1,0.04,-0.11,-3.82,6.69,1.33
0.318,1.04,0.02,-0.05,-4.78,5.69,5.57
0.32,1.03,-0.0,-0.05,2.89,-2.27,7.28
0.322,1.04,0.01,-0.13,-7.42,-9.91,4.53
0.324,1.04,0.03,-0.1,-16.98,-14.89,-3.39
0.326,1.08,0.03,-0.13,-19.91,-13.3,-5.28
0.327,1.12,0.03,-0.13,-16.24,-5.92,-2.11
0.329,1.12,0.05,-0.08,-13.11,10.72,2.12
0.332,1.13,0.05,-0.02,-12.93,29.13,11.47
0.333,1.18,0.06,-0.04,-24.26,40.93,16.15
0.335,1.34,0.09,-0.09,-35.98,66.05,24.92
0.337,1.3,0.05,-0.15,-50.98,112.76,45.51
0.339,1.1,0.0,-0.0,-53.95,159.25,70.93
0.341,1.13,-0.01,0.02,-56.26,144.67,75.97
0.343,1.19,0.04,0.07,-51.11,140.31,90.76
0.345,0.99,-0.07,-0.17,-59.91,121.59,106.84
0.347,0.94,-0.21,-0.44,-50.66,112.34,133.86
0.349,0.78,-0.27,-0.41,-5.92,113.89,155.5
0.351,0.62,-0.26,-0.42,18.47,200.85,163.74
0.352,0.99,-0.18,-0.09,66.9,277.95,147.85
0.354,0.56,-0.08,0.11,121.27,443.44,149.54
0.356,0.36,0.05,0.43,188.96,396.0,131.08
0.358,-0.16,-0.05,1.27,269.53,343.08,136.03
0.36,-0.43,-0.23,1.66,204.24,296.4,137.6
0.362,0.23,-0.18,1.21,66.32,253.15,58.34
0.364,0.19,-0.11,0.85,-9.01,205.5,52.35
0.366,0.07,-0.21,0.8,-3.98,58.49,87.94
0.367,-0.04,-0.28,0.9,14.23,-20.14,97.65
0.369,0.12,-0.17,0.72,11.5,76.23,68.44
0.371,-0.12,-0.19,0.92,8.7,153.02,62.84
0.373,-0.15,-0.18,1.05,72.24,171.57,63.34
0.375,-0.31,-0.22,1.29,96.85,150.76,58.84
0.377,-0.34,-0.21,1.17,79.24,144.84,53.21
0.379,-0.37,-0.19,1.22,67.76,155.88,39.31
0.381,-0.19,-0.11,1.34,53.08,156.02,16.41
0.383,-0.11,-0.17,1.67,46.52,72.17,9.69
0.385,-0.12,-0.14,1.6,18.92,-39.37,15.24
0.387,-0.07,-0.09,1.38,-10.96,-99.16,13.21
0.389,-0.08,-0.1,0.87,-46.78,-112.79,16.92
0.391,-0.05,-0.24,0.88,-60.78,-63.92,25.3
0.393,-0.11,-0.21,0.94,-26.06,-25.53,15.05
0.394,0.1,-0.18,0.95,1.66,-38.26,-2.52
0.397,0.26,-0.18,0.98,8.5,-69.24,-1.8
0.398,0.16,-0.17,0.99,15.45,-45.13,11.56
0.4,-0.18,-0.24,1.16,5.05,11.51,22.02
0.402,-0.31,-0.22,1.13,10.56,-19.69,3.85
0.404,-0.09,-0.22,1.12,-2.81,-86.87,-20.34
0.406,0.12,-0.19,1.15,-7.21,-127.97,-36.5
0.408,0.1,-0.21,1.24,-25.02,-99.77,-35.68
0.409,-0.03,-0.14,1.23,-21.11,-111.54,-32.27
0.412,0.09,-0.19,1.15,-14.02,-191.86,-38.38
0.414,0.14,-0.19,0.89,-11.91,-278.9,-47.73
0.416,0.21,-0.17,0.74,-6.75,-293.51,-55.91
0.418,0.23,-0.2,0.74,-15.39,-329.79,-60.47
0.42,0.33,-0.13,0.68,-22.93,-319.02,-72.89
0.421,0.32,-0.04,0.66,-34.81,-338.23,-92.52
0.423,0.35,0.0,0.57,-37.15,-363.01,-113.63
0.425,0.53,-0.0,0.29,2.58,-409.1,-124.31
0.427,1.18,0.07,-0.3,31.98,-482.32,-125.95
0.429,1.11,0.16,-0.24,-21.57,-500.27,-100.79
0.431,0.73,0.09,-0.02,-39.73,-451.3,-41.33
0.433,0.82,0.05,-0.2,0.81,-422.5,-37.01
0.435,0.66,-0.17,-0.66,30.34,-360.79,-24.14
0.437,0.81,-0.05,-1.24,26.05,-300.75,-21.8
0.439,0.78,0.11,-0.83,-21.4,-209.05,-44.14
0.44,0.84,0.15,-0.59,-7.94,-175.86,-71.15
0.442,1.24,0.27,-0.76,4.55,-184.06,-86.76
0.444,1.08,0.25,-0.49,-2.52,-76.05,-71.92
0.446,1.22,0.26,-0.87,-15.95,-10.08,-41.31
0.448,1.06,0.22,-0.82,-15.89,16.78,-16.63
0.45,0.67,0.12,-0.44,19.82,31.34,14.05
0.452,0.56,0.05,-0.44,18.32,1.21,6.41
0.454,0.94,0.17,-0.59,1.39,-75.98,-36.79
0.456,1.14,0.23,-0.7,-18.47,-70.96,-49.5
0.457,1.14,0.27,-0.61,-20.92,-29.54,-25.22
0.459,1.02,0.24,-0.7,-18.05,18.47,13.74
0.461,0.63,0.11,-0.65,-21.18,49.31,42.17
0.463,0.62,0.04,-0.78,-13.22,36.82,32.87
0.465,0.66,0.06,-0.7,-3.8,15.21,4.78
0.467,0.9,0.14,-0.68,15.91,-25.98,-19.48
0.47,1.02,0.19,-0.62,19.4,-12.06,-21.27
0.475,0.96,0.21,-0.46,12.2,22.95,-4.69
0.478,0.94,0.19,-0.58,-4.2,49.82,12.87
0.48,1.01,0.2,-0.66,-21.56,68.84,20.26
0.482,0.98,0.18,-0.63,-28.38,94.47,25.82
0.484,1.01,0.16,-0.68,-31.31,113.44,29.4
0.486,0.98,0.16,-0.5,-30.21,144.85,33.42
0.488,0.93,0.14,-0.31,-16.66,169.5,42.09
0.491,0.98,0.1,-0.41,-27.54,153.27,42.06
0.493,0.94,0.07,-0.35,-33.59,151.33,42.09
0.495,0.9,0.04,-0.39,-36.56,150.78,37.56
0.497,0.98,0.11,-0.28,-31.97,141.73,31.19
0.499,1.17,0.06,-0.43,-40.6,124.09,30.92
0.501,1.06,0.11,-0.02,-1.37,202.41,51.5
0.502,1.09,0.06,-0.02,9.51,232.37,58.41
0.504,1.0,-0.02,-0.07,-10.64,255.98,62.84
0.506,0.94,-0.01,-0.0,2.14,264.02,63.66
0.508,1.36,-0.01,-0.19,15.33,262.05,62.79
0.51,0.87,-0.02,0.28,35.95,263.71,90.15
0.512,0.74,-0.05,0.75,84.95,271.65,103.15
0.514,0.81,-0.11,0.78,50.72,238.92,89.21
0.516,0.79,-0.16,0.69,-32.9,227.3,77.1
0.518,0.68,-0.19,0.55,-67.39,219.53,90.32
0.52,0.52,-0.24,0.56,-59.66,195.42,111.04
0.522,0.6,-0.26,0.6,-35.59,149.63,111.6
0.524,0.51,-0.31,0.49,-17.8,179.22,107.79
0.527,0.31,-0.31,0.71,14.14,214.7,109.95
0.529,-0.05,-0.32,0.98,72.41,195.36,98.14
0.531,-0.02,-0.31,1.18,88.81,131.88,63.68
0.533,0.01,-0.33,1.32,58.73,101.71,20.17
0.535,0.27,-0.27,1.01,13.48,80.26,-17.24
0.537,0.38,-0.29,0.94,-23.13,64.41,-19.97
0.539,0.41,-0.27,0.94,-4.93,5.68,-6.46
0.541,0.34,-0.26,0.95,1.51,4.75,1.54
0.543,0.39,-0.24,0.93,3.21,15.92,3.63
0.545,0.25,-0.27,0.97,-1.05,38.14,6.46
0.547,0.36,-0.27,0.91,-0.82,25.88,3.92
0.549,0.27,-0.26,1.0,0.44,5.1,-0.47
0.551,0.29,-0.24,0.95,2.26,-25.42,-3.28
0.553,0.32,-0.25,1.03,0.06,-34.9,-3.28
0.555,0.22,-0.29,0.98,-10.67,-46.99,-5.74
0.557,0.24,-0.31,0.89,-11.44,-77.19,-6.9
0.559,0.33,-0.31,0.9,-3.47,-115.63,-12.93
0.561,0.42,-0.27,0.85,-2.92,-123.1,-24.79
0.563,0.51,-0.23,0.71,-2.63,-100.81,-35.11
0.565,0.51,-0.24,0.82,9.88,-80.43,-40.95
0.567,0.46,-0.23,0.86,28.21,-73.77,-44.6
0.569,0.5,-0.23,0.81,32.99,-72.12,-52.61
0.571,0.56,-0.2,0.78,46.89,-89.3,-57.66
0.573,0.56,-0.16,0.73,56.92,-103.8,-54.46
0.575,0.75,-0.1,0.66,48.23,-117.08,-56.5
0.577,0.87,-0.07,0.8,44.03,-103.77,-54.87
0.579,0.79,-0.06,0.81,50.23,-79.53,-48.14
0.581,0.72,-0.06,0.74,51.97,-59.54,-36.31
0.583,0.72,-0.06,0.78,62.0,-82.0,-28.47
0.585,0.75,0.0,0.73,57.13,-92.87,-28.9
0.587,0.81,-0.03,0.67,29.62,-107.01,-42.61
0.588,0.85,-0.01,0.67,22.29,-91.4,-48.46
0.59,0.82,-0.01,0.62,12.27,-54.6,-52.72
0.592,0.83,-0.05,0.59,7.36,-19.01,-56.5
0.594,0.85,0.02,0.56,8.61,11.13,-61.36
0.596,0.83,0.1,0.56,-25.69,91.11,-72.12
0.598,1.0,0.03,0.47,-85.62,121.19,-90.9
0.6,1.06,0.16,0.77,-85.48,203.65,-76.34
0.602,1.0,0.2,0.94,-69.4,269.25,-54.18
0.604,0.61,0.11,1.0,-82.34,335.59,-12.84
0.606,0.54,0.06,0.6,-109.53,281.89,23.79
0.608,0.11,-0.04,0.33,-132.84,232.49,48.98
0.61,-0.68,-0.15,0.66,-91.56,240.98,31.94
0.612,-0.38,-0.04,0.7,11.71,186.99,-39.88
0.614,-0.38,0.14,0.6,84.67,144.6,-121.6
0.616,0.13,0.17,1.15,105.25,133.94,-152.2
0.618,0.03,0.19,1.58,75.13,236.53,-157.04
0.62,0.07,0.1,1.35,-37.39,297.47,-136.26
0.622,0.26,0.06,1.23,-100.38,280.66,-103.33
0.624,-0.04,0.07,0.7,-119.59,227.16,-53.66
0.626,-0.62,-0.05,0.61,-114.0,267.47,-9.05
0.628,-0.46,-0.02,0.75,-51.19,227.53,-20.67
0.63,-0.55,-0.1,1.12,-6.82,173.31,-21.5
0.632,-0.32,-0.14,1.22,-0.67,174.72,-8.87
0.633,-0.43,-0.21,1.16,-39.8,172.85,5.45
0.635,-0.76,-0.21,0.78,-53.66,136.27,35.77
0.637,-0.91,-0.25,0.75,-58.53,116.08,44.79
0.639,-0.82,-0.24,0.9,-36.15,87.62,26.09
0.641,-0.65,-0.16,0.73,-43.1,77.13,20.18
0.643,-0.69,-0.14,0.67,-53.05,76.27,17.13
0.644,-0.7,-0.12,0.51,-41.69,68.29,17.28
0.646,-0.79,-0.07,0.72,-13.1,53.27,23.59
0.648,-0.72,-0.07,0.76,3.71,14.58,13.34
0.65,-0.69,-0.1,0.73,-16.2,24.61,7.68
0.652,-0.61,-0.12,0.6,-18.18,8.35,7.15
0.654,-0.9,-0.14,0.61,-16.18,-2.89,19.79
0.656,-0.72,-0.15,0.64,4.08,-25.6,16.41
0.658,-0.65,-0.16,0.75,-5.25,-16.24,-1.63
0.659,-0.61,-0.1,0.48,-12.09,-11.48,1.8
0.661,-0.62,-0.12,0.39,-19.36,0.96,12.37
0.663,-0.74,-0.12,0.56,2.99,10.09,15.71
0.665,-0.76,-0.18,0.83,32.81,-26.52,13.74
0.667,-0.8,-0.15,0.93,34.69,-49.65,8.96
0.669,-0.75,-0.15,0.81,13.57,-60.93,7.11
0.671,-0.66,-0.13,0.73,-5.19,-46.52,1.07
0.673,-0.63,-0.15,0.7,0.87,-57.13,-1.24
0.675,-0.68,-0.2,0.95,18.06,-61.88,-2.31
0.677,-0.6,-0.08,1.21,44.7,-127.24,-17.15
0.679,-0.73,-0.06,0.81,28.17,-171.97,-9.56
0.681,-0.83,-0.15,0.88,-20.6,-66.99,19.07
0.683,-0.57,-0.15,0.73,-5.37,-87.91,-5.25
0.684,-0.57,-0.13,0.97,17.89,-125.45,-18.44
0.687,-0.43,-0.07,1.08,54.6,-172.17,-33.36
0.688,-0.29,-0.04,1.09,57.4,-187.33,-54.47
0.69,-0.15,0.01,1.06,48.67,-198.03,-44.72
0.692,-0.17,0.01,0.97,28.78,-199.1,-14.17
0.694,-0.19,0.08,0.85,22.93,-171.91,5.54
0.696,-0.01,0.05,0.94,41.31,-200.29,6.35
0.698,-0.44,0.04,1.28,63.34,-214.08,28.58
0.7,-0.46,-0.07,1.15,39.37,-219.25,17.48
0.701,-0.37,0.0,1.14,9.07,-234.98,5.33
0.703,0.24,0.03,0.82,-53.13,-226.7,-28.15
0.705,0.37,0.06,0.85,-84.38,-194.67,-30.32
0.707,0.31,0.03,0.71,-58.89,-178.61,-2.64
0.709,0.24,-0.06,0.61,6.89,-188.03,11.91
0.711,0.18,-0.09,0.49,40.44,-197.92,25.97
0.713,0.41,0.02,0.51,46.03,-211.45,15.97
0.715,0.69,0.11,0.8,37.94,-184.34,-0.66
0.717,0.82,0.13,0.79,16.99,-90.29,-3.94
0.718,0.82,0.04,0.71,-39.66,19.73,-13.79
0.72,0.83,0.03,0.6,-49.42,93.24,-13.13
0.722,0.8,-0.03,0.52,-48.55,90.37,3.31
0.724,0.64,0.06,0.65,-16.18,44.6,29.57
0.726,0.6,0.03,0.98,29.25,23.44,47.27
0.727,0.35,-0.03,1.14,15.65,42.37,52.4
0.729,0.14,-0.04,1.37,23.53,60.81,43.18
0.731,0.39,-0.09,1.18,8.58,25.31,14.14
0.733,0.49,-0.05,1.05,-3.16,7.56,0.29
0.735,0.47,-0.09,0.94,-8.66,-3.04,6.53
0.737,0.53,-0.04,0.95,4.89,16.21,6.14
0.739,0.49,-0.03,0.96,11.66,30.76,8.87
0.74,0.46,-0.01,0.93,8.09,38.98,15.69
0.742,0.47,0.01,1.0,12.44,20.37,21.68
0.744,0.4,-0.02,0.97,4.26,-3.8,29.21
0.746,0.45,-0.03,0.92,-1.22,-15.47,28.76
0.748,0.44,-0.03,0.88,0.46,-10.2,27.16
0.75,0.47,-0.04,0.87,-3.34,0.44,24.05
0.751,0.48,-0.04,0.91,1.77,21.62,22.61
0.753,0.43,-0.04,0.9,3.25,33.33,28.98
0.755,0.28,-0.01,1.05,5.63,29.16,37.18
0.757,0.3,-0.01,0.98,-9.85,-1.33,33.92
0.759,0.36,-0.09,0.96,-18.23,-31.97,29.11
0.761,0.44,-0.1,0.89,-19.33,-45.08,23.66
0.762,0.52,-0.08,0.91,-6.95,-43.47,20.52
0.764,0.54,-0.05,0.94,9.97,-26.64,23.62
0.766,0.54,-0.06,0.99,19.01,-6.66,29.5
0.768,0.41,-0.06,1.04,26.5,4.49,39.74
0.77,0.42,-0.07,1.0,18.03,-12.64,43.05
0.772,0.37,-0.09,0.96,14.61,-47.37,43.08
0.774,0.39,-0.07,1.0,35.73,-108.53,45.83
0.775,0.42,-0.05,1.11,52.84,-150.58,44.89
0.777,0.44,-0.05,1.14,40.52,-181.42,43.74
0.779,0.43,-0.05,1.0,21.07,-207.19,38.03
0.781,0.5,-0.08,0.91,9.24,-247.71,31.56
0.783,0.58,-0.08,0.75,8.23,-299.16,31.95
0.785,0.67,-0.13,0.73,9.39,-341.28,27.18
0.787,0.47,-0.14,0.75,7.04,-374.12,27.97
0.789,0.4,-0.16,0.46,-6.9,-440.69,31.53
0.791,0.29,-0.15,0.15,-10.6,-500.27,25.77
0.793,0.45,-0.09,0.01,-33.13,-500.27,1.62
0.795,0.19,-0.13,-0.16,-44.43,-500.27,-9.31
0.797,0.31,-0.17,-0.73,-59.16,-500.27,-21.92
0.799,0.51,0.05,-1.3,-139.98,-500.27,-47.92
0.801,0.4,0.17,-1.35,-148.43,-499.66,-59.6
0.802,0.18,0.18,-0.94,-114.17,-435.92,-50.23
0.804,0.23,0.12,-0.67,-72.55,-374.69,-41.01
0.806,0.17,0.17,-0.77,-84.12,-325.07,-28.53
0.808,-0.14,0.11,-0.91,-109.39,-249.76,-14.43
0.81,-0.34,0.07,-1.07,-94.98,-205.1,-12.17
0.812,-0.24,0.23,-0.89,-89.57,-148.85,-33.91
0.814,0.24,0.41,-1.17,-93.51,-159.94,-53.85
0.816,0.15,0.53,-1.11,-88.38,-131.5,-32.27
0.818,-0.12,0.47,-1.48,-91.77,-139.48,11.86
0.82,-0.44,0.37,-1.44,-75.98,-86.4,39.42
0.821,-0.41,0.42,-1.19,-36.0,-57.3,20.9
0.823,-0.19,0.47,-1.3,-33.95,-64.81,-2.23
0.825,-0.36,0.41,-1.21,-37.15,-14.55,8.38
0.827,-0.13,0.43,-1.32,-40.78,-13.01,-5.82
0.829,-0.01,0.39,-1.36,-28.92,11.19,-9.42
0.831,-0.12,0.4,-1.32,-12.47,34.89,-2.2
0.833,-0.05,0.42,-1.04,4.58,38.06,-4.21
0.835,0.03,0.43,-1.12,10.63,23.53,-2.47
0.836,0.12,0.42,-1.22,6.17,26.73,5.42
0.838,0.06,0.41,-1.18,14.11,62.96,18.43
0.84,-0.03,0.41,-1.07,27.24,101.51,32.17
0.842,-0.01,0.41,-1.06,23.73,59.15,18.66
0.844,0.09,0.43,-1.16,19.8,54.72,13.05
0.846,-0.06,0.53,-1.05,24.75,68.2,17.15
0.848,0.09,0.41,-1.37,23.28,91.63,22.09
0.85,0.08,0.37,-1.38,27.07,108.79,29.62
0.851,-0.01,0.29,-1.12,54.35,138.78,34.93
0.853,0.0,0.28,-0.74,82.17,146.23,33.39
0.855,0.26,0.25,-0.91,61.47,124.34,19.21
0.857,0.45,0.28,-1.07,48.61,119.27,13.02
0.859,0.6,0.44,-1.14,43.36,154.05,19.5
0.861,0.64,0.34,-1.0,28.43,208.11,42.63
0.863,0.5,0.26,-0.71,17.95,227.8,66.35
0.865,0.53,0.22,-0.95,-6.84,240.38,82.46
0.867,0.8,0.22,-1.08,-20.08,234.09,79.73
0.868,0.89,0.29,-1.09,-16.24,260.55,83.76
0.87,0.9,0.24,-0.95,-7.77,342.46,110.32
0.872,0.61,0.11,-0.79,16.58,428.52,143.1
0.874,0.44,-0.02,-0.61,45.4,493.16,140.99
0.876,0.23,-0.05,0.05,65.13,500.26,116.72
0.878,0.53,-0.08,0.27,42.55,370.05,34.84
0.88,0.97,0.02,-0.04,-40.15,220.06,-19.05
0.882,1.21,0.04,-0.03,-87.11,179.45,-15.39
0.884,1.07,-0.01,0.03,-120.34,203.39,12.58
0.886,0.83,-0.1,0.06,-108.43,214.34,54.15
0.887,0.69,-0.14,0.25,-66.7,204.46,66.64
0.889,0.72,-0.17,0.33,-29.24,160.58,61.4
0.891,0.8,-0.17,0.29,-8.66,108.82,46.55
0.893,0.78,-0.19,0.32,6.72,100.56,36.52
0.895,0.82,-0.21,0.39,28.02,86.84,27.73
0.897,0.83,-0.2,0.3,46.7,75.83,16.78
0.899,0.73,-0.18,0.55,65.92,66.6,11.24
0.9,0.75,-0.13,0.64,68.06,38.15,0.09
0.902,0.89,-0.08,0.66,49.94,19.13,-4.87
0.904,0.92,-0.04,0.64,38.02,28.55,-5.83
0.906,1.16,-0.03,0.51,15.57,50.44,-4.63
0.908,1.09,-0.07,0.39,-3.57,113.37,5.19
0.91,0.99,-0.14,0.25,6.05,159.73,26.21
0.911,0.8,-0.13,0.44,38.93,161.48,58.15
0.917,0.58,-0.13,0.64,76.81,128.82,78.43
0.919,0.57,-0.12,0.62,74.34,98.21,81.21
0.921,0.59,-0.15,0.68,54.72,96.55,71.05
0.923,0.49,-0.12,0.62,45.07,113.79,60.02
0.925,0.53,-0.08,0.86,60.0,125.86,48.67
0.927,0.41,-0.11,0.93,57.45,152.84,34.0
0.929,0.12,-0.13,1.15,63.69,148.4,34.21
0.93,0.2,-0.09,1.3,59.45,66.55,29.05
0.932,0.28,-0.06,1.39,48.82,3.05,11.74
0.934,0.47,0.02,1.25,11.92,-25.94,-9.24
0.936,0.67,0.06,1.15,-31.51,-22.49,-36.37
0.938,0.55,-0.07,1.06,-71.95,-27.18,-36.69
0.94,0.48,-0.14,0.98,-62.12,-49.3,-21.85
0.942,0.53,-0.13,0.78,-30.47,-131.16,-14.79
0.944,0.59,-0.14,0.77,-17.27,-182.31,-10.69
0.946,0.77,-0.15,0.5,-18.38,-171.1,-17.1
0.948,0.77,-0.11,0.55,-10.06,-121.68,-12.78
0.95,0.95,-0.11,0.52,-2.38,-57.83,-29.53
0.952,0.91,-0.03,0.58,13.65,24.49,-46.27
0.954,0.79,-0.03,0.89,24.87,89.48,-26.64
0.956,0.68,-0.05,0.89,4.63,99.01,-16.44
0.957,0.65,-0.07,0.82,-17.62,71.6,-5.68
0.959,0.71,-0.08,0.79,-22.67,3.24,2.67
0.961,0.73,-0.1,0.64,-25.92,-25.56,13.53
0.963,0.61,-0.13,0.66,-15.56,-14.7,20.05
0.965,0.72,-0.24,0.48,-3.95,4.06,18.52
0.967,0.52,-0.11,0.8,6.21,50.47,0.47
0.969,0.62,-0.09,0.73,10.08,62.49,-4.73
0.971,0.6,-0.07,0.82,10.53,64.2,-5.65
0.972,0.63,-0.03,0.89,12.12,48.4,2.14
0.974,0.63,-0.07,0.82,-1.01,49.4,8.9
0.976,0.58,-0.13,0.74,-12.5,51.69,19.21
0.978,0.43,-0.12,0.84,0.75,57.95,26.21
0.98,0.22,-0.13,0.86,8.92,40.75,20.49
0.982,0.3,-0.14,0.99,2.75,6.92,-4.95
0.983,0.55,-0.12,0.88,-14.38,-16.4,-37.79
0.985,0.56,-0.1,0.85,-17.39,-5.08,-45.91
0.987,0.52,-0.1,0.8,-7.15,10.12,-39.97
0.989,0.62,-0.07,0.88,8.41,-14.32,-39.27
0.991,0.65,-0.04,0.89,20.02,-27.22,-35.92
0.993,0.69,-0.03,0.87,21.85,-28.05,-33.94
0.995,0.7,-0.01,0.93,18.35,-41.42,-23.16
0.997,0.68,-0.02,0.84,5.66,-36.41,-14.37
0.999,0.64,-0.01,0.79,-1.21,-44.78,-8.31
1.001,0.73,-0.05,0.73,-0.82,-55.48,-13.28
1.003,0.72,-0.04,0.83,1.69,-49.39,-9.91
1.004,0.66,-0.04,0.78,-7.56,-17.62,-11.31
1.006,0.6,-0.06,0.87,-7.24,-1.07,-13.79
1.008,0.63,-0.06,0.79,-9.27,-7.98,-16.93
1.01,0.67,-0.05,0.78,-13.68,-21.68,-17.34
1.012,0.65,-0.04,0.75,-11.85,-31.79,-13.56
1.013,0.67,-0.07,0.72,-12.61,-39.19,-15.28
1.015,0.71,-0.05,0.75,-10.38,-34.4,-15.54
1.017,0.75,-0.04,0.75,-4.26,-29.88,-17.42
1.019,0.75,-0.01,0.76,0.84,-10.4,-16.23
1.021,0.74,-0.04,0.75,-8.29,4.64,-14.76
1.023,0.7,-0.04,0.75,-7.97,6.92,-9.76
1.027,0.69,-0.03,0.73,-2.47,1.36,-5.27
1.029,0.69,-0.03,0.77,2.53,-11.56,-2.08
1.031,0.69,-0.0,0.79,4.53,-1.5,-1.8
1.033,0.8,-0.01,0.78,-14.76,9.25,-4.92
1.035,0.67,-0.01,0.82,-22.32,40.32,-3.8
1.037,0.61,-0.06,0.72,-22.15,47.73,0.21
1.039,0.58,-0.03,0.73,-9.53,11.76,1.62
1.047,0.68,-0.05,0.74,-5.01,-45.8,-8.34
1.049,0.73,-0.02,0.76,3.91,-54.31,-9.39
1.051,0.75,-0.03,0.75,3.91,-22.34,-13.19
1.053,0.74,-0.03,0.72,-4.92,8.72,-12.08
1.055,0.72,-0.03,0.72,3.24,32.23,-11.31
1.057,0.67,-0.04,0.73,2.4,17.82,-7.65
1.059,0.62,-0.03,0.76,11.42,9.5,-4.23
1.061,0.65,-0.02,0.83,5.15,-17.3,-10.99
1.064,0.65,-0.02,0.79,7.19,-32.7,-13.73
1.066,0.71,-0.02,0.8,6.55,-55.11,-18.63
1.068,0.81,0.0,0.7,22.81,-65.27,-20.72
1.07,0.79,0.02,0.71,29.71,-57.47,-16.46
1.072,0.8,0.03,0.69,33.05,-30.02,-11.85
1.074,0.78,0.04,0.67,33.07,-9.37,-8.32
1.076,0.8,0.06,0.71,35.13,0.44,-5.65
1.078,0.75,0.07,0.71,29.71,0.43,-1.11
1.08,0.77,0.07,0.72,28.67,-19.74,2.14
1.082,0.78,0.08,0.73,31.71,-32.14,6.32
1.084,0.73,0.08,0.78,31.53,-41.34,11.15
1.086,0.59,0.08,0.79,13.13,-63.48,10.98
1.088,0.63,0.04,0.71,9.83,-122.03,9.73
1.09,0.76,0.09,0.67,7.8,-178.37,-1.13
1.092,0.83,0.11,0.61,15.33,-214.23,-5.45
1.094,1.02,0.06,0.26,-9.69,-222.73,-5.57
1.097,1.13,0.05,0.12,2.52,-196.61,-3.68
1.099,1.22,0.07,0.09,12.29,-142.7,2.41
1.101,1.22,0.12,0.21,14.66,-73.57,10.03
1.103,1.25,0.17,0.24,15.62,-1.57,17.57
1.105,1.31,0.14,0.25,-5.56,73.22,18.27
1.107,1.12,0.1,0.3,-20.85,166.37,26.66
1.109,0.99,0.03,0.33,-19.63,216.08,35.83
1.111,0.83,-0.01,0.4,-4.85,222.46,44.08
1.113,0.79,-0.04,0.37,6.32,189.27,40.27
1.115,0.77,-0.05,0.38,10.69,152.09,30.27
1.117,0.83,-0.04,0.4,31.65,117.42,29.95
1.119,0.71,-0.02,0.74,27.36,66.79,27.83
1.121,0.71,0.03,0.8,10.72,109.01,32.56
1.123,0.68,0.01,0.7,-33.08,161.89,23.71
1.125,0.55,-0.04,0.79,-36.98,201.36,24.52
1.127,0.41,-0.09,0.87,-24.72,196.5,37.22
1.129,0.46,-0.09,1.0,-13.54,155.15,45.19
1.131,0.31,-0.03,0.99,-13.79,141.91,52.17
1.133,0.28,-0.13,1.01,-20.09,151.48,45.21
1.135,0.29,-0.1,0.9,-8.69,138.09,22.44
1.137,0.22,-0.1,1.03,1.24,130.72,14.47
1.139,0.28,-0.07,1.09,14.38,83.51,16.14
1.141,0.25,-0.06,1.11,12.31,62.72,12.2
1.143,0.23,-0.08,1.03,12.34,30.49,13.63
1.145,0.25,-0.08,0.98,4.09,7.68,11.19
1.148,0.29,-0.09,0.97,4.0,-18.63,10.32
1.15,0.32,-0.04,0.97,3.91,-22.5,6.31
1.152,0.25,-0.07,1.1,-5.08,-14.5,-1.62
1.154,0.49,-0.05,0.88,-13.94,-2.31,-7.5
1.156,0.34,-0.09,0.98,-10.06,-0.67,-7.11
1.158,0.29,-0.07,1.0,-6.72,-14.21,-9.6
1.159,0.26,-0.08,0.95,-3.98,-31.71,-11.42
1.161,0.29,-0.11,0.98,-7.95,-43.24,-15.19
1.163,0.37,-0.13,0.96,-9.59,-39.54,-24.61
1.165,0.38,-0.1,0.94,-16.69,-31.73,-31.33
1.167,0.48,-0.07,0.85,-7.15,-23.3,-31.62
1.169,0.45,-0.08,0.89,-4.5,-33.47,-17.39
1.171,0.47,-0.1,0.87,2.47,-32.55,-4.44
1.173,0.38,-0.08,0.97,7.57,-6.85,-3.62
1.175,0.36,-0.08,1.03,-1.16,22.24,-10.55
1.177,0.4,-0.08,0.97,-11.85,25.13,-18.89
1.179,0.38,-0.11,0.9,-12.69,16.06,-16.12
1.181,0.42,-0.1,0.95,-2.82,-19.05,-7.45
1.183,0.42,-0.07,0.98,-0.6,-29.13,-5.66
1.185,0.4,-0.09,0.97,0.79,-15.68,-2.46
1.187,0.4,-0.08,0.96,-5.44,1.73,-7.11
1.189,0.41,-0.1,0.93,-7.01,2.0,-9.73
1.191,0.42,-0.09,0.94,-6.66,-3.68,-8.56
1.193,0.43,-0.1,0.96,-5.83,-7.05,-5.51
1.195,0.39,-0.1,1.03,-3.4,-8.6,-2.95
1.197,0.4,-0.08,1.07,-6.29,-14.35,-2.66
1.199,0.39,-0.05,1.1,-14.46,-30.35,-7.85
1.201,0.39,-0.07,1.03,-27.21,-38.67,-12.75
1.203,0.47,-0.12,0.91,-41.45,-68.81,-17.34
1.205,0.52,-0.11,0.84,-23.94,-81.73,-13.94
1.208,0.6,-0.12,0.82,-11.25,-86.75,-15.19
1.21,0.64,-0.11,0.85,-0.23,-67.28,-14.58
1.211,0.64,-0.09,0.85,4.05,-34.0,-11.33
1.213,0.54,-0.11,0.9,-3.53,-21.07,-5.71
1.215,0.41,-0.08,0.96,-2.79,-39.66,3.86
1.217,0.54,-0.16,0.76,-37.19,-91.59,-4.24
1.219,0.67,-0.18,0.7,-18.09,-118.46,-3.88
1.221,0.75,-0.13,0.72,4.49,-107.3,-3.8
1.223,0.71,-0.16,0.79,17.69,-79.69,-0.93
1.225,0.6,-0.15,0.76,26.21,-41.02,5.04
1.227,0.51,-0.16,0.8,32.56,-40.82,10.56
1.229,0.42,-0.17,0.83,33.47,-93.98,13.95
1.231,0.53,-0.16,0.66,30.05,-187.08,9.44
1.233,0.61,-0.15,0.42,21.04,-241.57,2.58
1.235,0.8,-0.12,0.48,26.72,-258.38,-12.5
1.237,0.83,-0.04,0.35,13.77,-281.25,-15.89
1.239,0.95,-0.11,0.03,-13.02,-291.79,-21.31
1.24,1.03,-0.04,0.03,-18.46,-305.27,-24.76
1.242,1.04,-0.0,0.09,0.53,-279.1,-19.27
1.244,1.07,0.04,0.02,2.0,-256.29,-16.5
1.246,1.09,0.09,0.17,-3.8,-206.02,-21.77
1.248,1.1,0.06,0.06,-24.79,-141.79,-23.36
1.25,1.2,0.03,-0.37,-86.92,-130.82,-31.44
1.252,1.09,-0.01,-0.33,-85.02,-106.67,-20.87
1.254,0.92,0.0,-0.04,-49.31,-84.17,-9.66
1.256,0.84,0.05,0.11,-59.57,-93.05,-10.11
1.257,1.27,0.1,-0.37,-112.34,-109.16,-34.67
1.259,1.16,0.05,-0.54,-133.65,-65.44,-25.85
1.261,1.11,0.02,-0.4,-88.6,24.58,-9.48
1.263,0.85,0.01,-0.17,-40.35,44.61,7.01
1.265,0.9,0.01,-0.14,-32.73,16.26,1.47
1.267,1.04,0.03,-0.22,-45.71,-53.59,-18.31
1.269,1.24,0.09,-0.47,-62.0,-60.26,-19.88
1.27,1.18,0.1,-0.38,-50.24,-51.28,-7.31
1.272,1.07,0.08,-0.39,-37.44,-12.5,11.51
1.274,1.01,0.05,-0.26,-28.21,1.53,19.83
1.276,0.99,0.06,-0.29,-26.14,9.48,21.83
1.278,0.93,0.03,-0.41,-36.24,6.38,20.11
1.28,1.06,0.03,-0.45,-35.3,-10.79,8.15
1.282,1.0,0.07,-0.3,-15.13,3.42,6.23
1.284,1.0,0.03,-0.13,-0.93,17.3,10.78
1.286,1.07,0.02,-0.34,-11.19,4.89,5.45
1.288,1.02,0.03,-0.33,-8.64,2.23,7.62
1.289,0.99,0.04,-0.26,-7.53,15.95,8.64
1.291,1.01,0.04,-0.26,-8.47,26.87,8.72
1.293,0.98,0.05,-0.21,-17.65,27.07,7.77
1.295,1.07,0.03,-0.32,-24.26,33.6,4.4
1.297,1.01,0.04,-0.3,-34.35,44.49,-0.32
1.299,1.0,0.04,-0.31,-30.98,47.92,-4.58
1.301,1.13,0.06,-0.25,-21.05,41.16,-13.82
1.303,1.13,0.07,-0.12,-14.72,41.1,-5.76
1.305,1.18,0.08,-0.16,-10.81,32.52,6.96
1.306,1.15,0.07,-0.05,-12.15,27.95,21.27
1.308,1.1,0.05,-0.14,-14.69,33.07,35.82
1.31,1.03,0.01,-0.17,-15.37,62.82,45.16
1.312,0.89,-0.05,-0.15,-27.92,86.08,40.18
1.314,0.9,-0.05,-0.07,-18.41,91.8,32.73
1.316,0.92,-0.06,-0.13,-24.32,55.74,10.89
1.318,0.93,-0.08,-0.11,-14.37,35.31,2.09
1.319,1.04,-0.05,-0.17,7.65,25.22,-3.59
1.321,1.01,-0.05,-0.16,25.5,28.75,-3.95
1.323,0.94,-0.03,0.17,54.49,44.66,2.72
1.325,0.94,-0.03,0.12,49.95,29.6,-3.08
1.327,0.92,-0.03,0.18,31.18,18.5,-8.52
1.329,0.98,-0.03,0.06,18.34,-12.56,-19.07
1.331,1.0,-0.02,0.06,21.31,-23.13,-22.79
1.333,1.08,0.02,0.02,19.07,-26.5,-26.61
1.335,1.12,0.03,-0.07,2.73,-24.61,-23.83
1.337,1.08,0.06,0.03,5.57,-7.24,-16.89
1.338,1.09,0.03,-0.04,-2.09,-14.17,-16.5
1.34,1.09,0.02,-0.07,1.68,-12.46,-10.38
1.342,1.07,0.01,-0.07,7.56,-14.98,-4.58
1.344,1.03,0.01,-0.04,12.75,-15.22,-2.29
1.346,1.09,0.02,-0.05,16.34,-16.64,-5.73
1.348,1.07,0.03,0.01,21.15,-11.07,-6.41
1.35,1.07,0.04,0.06,12.93,-0.05,-4.32
1.352,1.09,0.03,-0.03,-2.09,1.39,-5.01
1.354,1.03,0.03,-0.02,-3.8,4.73,-3.51
1.355,1.02,0.02,-0.05,-5.25,3.04,-3.77
1.357,1.02,0.02,-0.06,-3.54,-3.77,-6.69
1.359,1.06,0.02,-0.06,0.58,-7.04,-7.27
1.361,1.05,0.03,-0.03,7.31,-6.43,-6.14
1.363,1.04,0.03,-0.01,6.44,-6.89,-5.89
1.365,1.06,0.04,-0.05,2.46,-2.61,-4.79
1.367,1.08,0.04,-0.08,1.4,3.02,-3.71
1.369,1.02,0.06,-0.04,6.44,11.02,0.12
1.37,1.04,0.04,-0.07,2.82,2.24,-0.64
1.372,1.04,0.04,-0.03,6.2,0.92,0.43
1.374,1.04,0.04,-0.08,5.62,0.82,0.69
1.376,1.01,0.03,-0.04,5.83,5.19,0.55
1.378,1.04,0.04,0.02,8.09,9.88,0.05
1.38,1.03,0.03,0.01,3.79,6.35,-0.18
1.382,1.03,0.01,-0.04,-1.3,-1.59,-1.18
1.383,1.01,0.02,-0.05,-1.25,-2.0,-2.27
1.385,1.05,0.03,-0.09,0.61,-4.55,-4.98
1.387,1.07,0.03,-0.05,4.6,-1.34,-6.67
1.389,1.04,0.04,-0.02,6.99,5.21,-4.98
1.391,1.06,0.04,0.02,8.11,4.06,-4.38
1.393,1.08,0.03,-0.0,3.28,2.44,-4.24
1.394,1.07,0.03,-0.0,2.02,5.57,-1.89
1.396,1.08,0.04,-0.05,1.02,6.27,-1.34
1.398,1.1,0.04,-0.04,-0.89,11.18,-0.52
1.4,1.13,0.05,-0.05,-1.73,15.07,-0.73
1.402,1.22,0.08,-0.04,0.84,26.99,4.76
1.404,1.41,0.12,-0.08,-7.82,56.37,10.92
1.405,1.91,0.25,-0.26,-22.29,121.11,26.7
1.407,1.78,0.28,-0.45,-21.91,219.71,76.99
1.409,1.16,0.09,-0.45,11.08,346.34,152.09
1.411,0.68,-0.02,0.32,72.66,324.64,177.18
1.413,0.64,-0.18,0.36,109.1,236.46,181.88
1.415,0.52,-0.23,0.6,14.81,118.0,139.54
1.417,0.65,-0.26,0.51,-39.53,72.14,105.82
1.419,0.91,-0.31,0.24,-61.21,89.22,87.28
1.42,0.95,-0.33,0.08,-57.68,220.95,90.47
1.423,0.29,-0.36,-0.19,-38.03,369.16,116.93
1.424,-0.07,-0.45,0.35,23.71,476.92,131.98
1.426,-0.47,-0.34,0.85,100.29,500.26,116.6
1.428,-0.53,-0.17,1.25,137.6,485.82,66.98
1.43,-0.14,-0.28,0.68,107.83,361.74,26.79
1.432,-0.12,-0.04,1.1,133.77,263.57,31.25
1.434,-0.16,0.06,1.26,112.56,163.89,31.37
1.436,-0.09,0.01,1.11,88.85,128.78,45.28
1.438,-0.36,-0.03,0.82,41.83,152.38,42.15
1.44,-0.5,0.02,0.55,-21.53,241.1,52.35
1.442,-0.18,0.06,0.58,-16.85,211.51,61.25
1.443,-0.34,0.15,0.71,44.81,289.21,10.82
1.445,-0.74,0.02,0.87,40.14,98.64,35.73
1.447,-0.97,-0.07,1.28,107.4,220.52,38.46
1.449,-0.97,-0.12,1.08,66.29,186.58,46.47
1.451,-1.08,-0.08,1.21,47.73,118.98,8.46
1.453,-0.94,0.08,1.21,69.62,6.47,-37.36
1.455,-0.68,0.02,1.05,5.65,54.29,-65.65
1.456,-0.27,-0.13,0.9,-12.32,109.97,-78.76
1.458,-0.05,-0.08,1.05,15.45,119.19,-87.34
1.46,-0.36,-0.11,0.77,8.05,22.7,-34.81
1.462,-0.73,-0.1,0.96,-21.33,27.92,5.53
1.464,-1.08,-0.06,0.46,-56.73,5.31,12.2
1.466,-0.81,-0.1,0.3,-42.89,57.88,-8.69
1.468,-0.65,-0.09,0.43,-0.99,25.33,-39.16
1.469,-0.64,-0.07,0.56,41.91,2.23,-38.98
1.471,-0.67,-0.15,0.9,55.48,18.32,-31.76
1.473,-0.64,-0.16,0.87,42.75,18.85,-25.76
1.475,-0.61,-0.16,0.75,13.36,9.45,-13.91
1.477,-0.65,-0.09,0.79,8.58,1.5,-2.49
1.479,-0.6,-0.05,0.6,-2.17,-29.95,5.27
1.481,-0.61,-0.06,0.65,-3.65,-3.01,15.62
1.482,-0.66,-0.05,0.7,1.53,-14.87,17.31
1.484,-0.73,-0.05,0.72,8.72,-24.76,14.41
1.486,-0.79,-0.08,0.82,11.45,-20.15,16.21
1.488,-0.73,-0.07,0.81,10.35,-38.66,6.47
1.49,-0.73,-0.09,0.79,1.74,-39.33,5.48
1.492,-0.69,-0.11,0.76,-1.85,-18.02,8.02
1.493,-0.73,-0.12,0.83,0.76,-35.08,6.4
1.495,-0.7,-0.15,0.98,6.17,-59.92,1.71
1.497,-0.62,-0.12,1.11,2.2,-88.99,-12.98
1.499,-0.6,-0.07,0.93,-19.89,-118.09,-18.5
1.501,-0.66,-0.08,0.87,-40.06,-86.87,-3.07
1.503,-0.65,-0.08,0.71,-41.28,-70.02,-1.62
1.505,-0.6,-0.12,0.86,-38.41,-68.18,-15.76
1.507,-0.44,-0.15,0.88,-21.71,-95.65,-31.37
1.509,-0.51,-0.12,0.98,-8.6,-149.65,-42.26
1.511,-0.43,-0.06,1.02,5.1,-195.15,-53.42
1.513,-0.27,-0.07,1.06,5.48,-202.4,-63.94
1.514,-0.13,-0.15,1.04,-10.61,-193.28,-47.95
1.516,-0.18,-0.1,0.94,-28.66,-199.31,-30.31
1.518,-0.54,-0.13,1.2,-10.12,-235.94,-23.31
1.52,-0.04,-0.1,1.35,2.29,-235.42,-77.73
1.522,0.6,-0.12,1.19,-18.06,-210.23,-86.03
1.524,0.16,-0.08,1.06,-72.63,-95.83,-19.92
1.526,-0.33,-0.24,0.84,-92.14,-183.37,19.66
1.528,0.37,-0.16,0.01,-61.11,-267.4,7.85
1.529,-0.4,-0.24,0.68,-27.95,-196.76,-48.58
1.532,0.11,-0.19,1.19,19.71,-253.53,-68.5
1.533,0.37,-0.16,1.07,-14.92,-265.71,-67.98
1.535,0.46,-0.14,0.59,-19.62,-285.01,-55.27
1.537,0.58,-0.15,0.32,14.81,-370.37,-43.4
1.539,0.6,-0.17,0.41,21.57,-424.2,-30.32
1.541,0.44,-0.15,0.28,17.36,-411.95,-26.06
1.543,0.53,-0.19,0.26,15.91,-416.44,-43.76
1.545,0.7,-0.2,-0.05,28.66,-388.46,-67.34
1.547,0.62,-0.2,-0.21,23.51,-402.99,-71.51
1.548,0.68,-0.05,-0.37,19.16,-436.17,-80.81
1.55,0.81,0.11,-0.14,10.52,-473.4,-110.81
1.552,1.07,0.15,-0.66,-23.89,-452.43,-112.15
1.554,0.96,0.13,-0.81,-29.56,-376.64,-85.28
1.556,0.51,0.11,-1.25,-49.68,-335.65,-57.18
1.558,0.37,0.12,-0.83,-48.66,-302.44,-59.36
1.56,0.78,0.27,-0.82,-51.95,-326.67,-107.53
1.561,0.88,0.31,-0.96,-71.16,-298.99,-120.47
1.564,0.99,0.37,-1.15,-48.06,-311.16,-92.64
1.566,0.59,0.23,-0.99,-22.64,-217.53,-42.29
1.567,0.33,0.19,-1.03,-8.49,-141.77,-2.37
1.569,0.29,0.19,-1.1,-16.53,-77.85,9.47
1.571,0.26,0.19,-1.14,-28.56,-25.04,7.63
1.573,0.33,0.25,-1.2,-13.57,24.41,5.62
1.575,0.48,0.32,-1.25,-14.32,47.05,2.58
1.577,0.53,0.33,-1.13,-0.18,80.53,16.26
1.579,0.58,0.33,-1.12,-0.31,129.66,29.65
1.581,0.74,0.33,-1.31,-4.37,137.92,30.4
1.583,0.57,0.22,-0.95,9.18,179.54,38.93
1.584,0.61,0.12,-0.85,27.76,196.61,37.54
1.586,0.71,0.12,-0.74,46.09,129.63,26.17
1.588,0.83,0.14,-0.73,40.89,87.65,22.53
1.59,0.88,0.17,-0.77,33.22,87.36,36.43
1.592,0.65,0.13,-0.47,30.58,120.66,56.49
1.594,0.65,0.06,-0.68,18.18,125.69,59.07
1.596,0.55,0.01,-0.71,5.89,104.14,48.53
1.598,0.49,-0.02,-0.53,19.47,81.92,33.4
1.599,0.7,0.01,-0.57,6.79,-15.18,-15.57
1.601,0.86,0.08,-0.61,11.48,-51.56,-32.46
1.603,1.0,0.13,-0.65,8.49,-58.2,-31.89
1.605,0.96,0.13,-0.72,-1.56,-26.5,-10.26
1.607,0.76,0.11,-0.59,-0.66,39.95,16.18
1.609,0.73,0.07,-0.71,-12.29,46.66,15.6
1.611,0.71,0.06,-0.71,-8.61,42.61,9.66
1.612,0.79,0.09,-0.72,-0.31,33.47,-0.85
1.614,0.94,0.1,-0.7,0.03,21.79,-10.44
1.616,1.09,0.12,-0.71,4.23,31.92,-8.18
1.618,1.12,0.13,-0.68,-2.11,78.18,3.56
1.62,1.13,0.11,-0.76,-5.82,130.23,26.69
1.622,1.06,0.07,-0.7,-5.68,195.37,46.47
1.624,1.02,0.02,-0.7,11.02,241.16,58.47
1.626,0.94,0.05,-0.51,27.25,282.89,59.02
1.627,1.07,-0.01,-0.35,26.26,288.81,42.6
1.629,0.95,-0.04,-0.22,35.53,291.6,44.58
1.631,1.06,-0.09,-0.38,27.3,307.56,39.07
1.633,0.9,-0.12,-0.28,2.08,269.71,34.92
1.635,0.89,-0.1,-0.22,-14.98,333.34,18.6
1.637,1.09,-0.08,0.01,3.54,335.3,19.95
1.639,0.99,-0.06,0.31,5.39,371.34,33.16
1.64,0.23,-0.15,0.48,-18.56,480.05,77.74
1.642,-0.04,-0.29,0.76,-54.17,500.26,85.11
1.644,0.1,-0.17,0.44,-96.84,500.26,48.05
1.646,0.11,-0.04,0.42,-91.11,500.26,50.44
1.648,0.04,0.07,0.65,2.76,359.19,63.89
1.65,-0.25,0.01,1.29,79.77,265.24,63.01
1.652,0.11,0.03,1.41,99.04,202.78,37.85
1.654,-0.18,-0.15,1.46,-3.16,250.15,60.12
1.656,-0.44,-0.13,0.87,-71.92,295.25,103.77
1.657,-0.15,-0.18,0.7,-83.94,283.08,104.69
1.659,-0.19,-0.15,0.64,-22.93,188.96,77.69
1.661,-3.89,-2.48,4.0,21.21,133.37,90.55
1.663,0.09,-0.05,1.57,37.79,-372.98,-34.58
1.665,-0.46,-0.34,0.6,-150.93,-23.76,62.06
1.667,-0.74,-0.19,0.52,-48.55,260.75,48.52
1.668,-0.47,-0.32,0.99,8.29,80.96,-16.18
1.67,-0.28,-0.35,1.2,43.74,-29.4,-43.89
1.672,-0.33,-0.25,1.23,36.84,8.58,-37.82
1.674,-0.25,-0.22,1.01,-24.32,42.17,-2.49
1.676,-0.28,-0.11,0.5,-50.55,64.6,11.45
1.678,-0.42,-0.13,0.39,-37.85,37.1,12.11
1.68,-0.53,-0.14,0.52,8.24,5.95,4.49
1.682,-0.52,-0.2,0.78,40.02,-10.53,-12.99
1.683,-0.57,-0.27,1.17,52.15,0.6,-26.84
1.685,-0.32,-0.27,0.99,36.82,-7.65,-30.63
1.687,-0.3,-0.29,0.86,12.75,26.43,-14.67
1.689,-0.46,-0.25,0.82,10.31,22.35,0.61
1.691,-0.5,-0.26,0.95,15.82,-21.18,-2.29
1.693,-0.59,-0.29,1.13,20.78,-34.29,-9.97
1.695,-0.44,-0.3,1.23,11.74,-38.92,-22.75
1.697,-0.37,-0.28,1.15,-5.63,-63.85,-36.55
1.699,-0.36,-0.22,0.99,-22.15,-55.07,-24.34
1.701,-0.44,-0.26,0.87,-33.04,-44.47,-12.21
1.703,-0.41,-0.28,0.81,-24.21,-41.54,-13.18
1.705,-0.48,-0.33,0.9,-7.11,-76.58,-25.1
1.706,-0.53,-0.38,1.1,12.69,-119.22,-52.64
1.708,-0.27,-0.32,1.22,29.44,-168.21,-95.6
1.71,0.02,-0.29,1.14,11.71,-193.21,-117.02
1.712,0.15,-0.25,0.99,-17.34,-217.19,-95.95
1.714,-0.1,-0.21,0.94,-20.72,-238.46,-64.63
1.716,-0.17,-0.26,0.89,-4.87,-293.34,-63.77
1.718,0.08,-0.23,1.11,28.6,-350.6,-96.96
1.72,0.03,-0.12,1.09,41.27,-389.63,-112.7
1.722,0.07,-0.06,0.98,41.8,-417.54,-111.22
1.724,0.35,0.06,0.75,57.11,-467.76,-104.24
1.725,0.85,0.15,0.26,33.13,-473.71,-87.42
1.727,0.93,0.1,0.16,19.57,-427.22,-48.26
1.729,0.76,-0.02,0.03,3.91,-365.74,-22.99
1.731,0.72,-0.12,-0.25,5.02,-334.76,-1.16
1.733,0.8,-0.17,-0.21,42.99,-275.24,-2.02
1.735,0.97,-0.16,-0.03,79.51,-231.18,-10.96
1.737,1.14,-0.12,-0.03,63.77,-172.49,-22.85
1.739,0.98,-0.1,0.06,-9.37,-161.89,-11.04
1.741,1.01,-0.12,-0.14,-32.7,-134.72,-21.28
1.742,0.94,-0.14,-0.26,-19.15,-142.93,-27.1
1.744,1.11,-0.11,-0.47,24.95,-142.84,-24.75
1.747,1.18,-0.05,-0.51,12.61,-141.98,-29.92
1.749,1.14,-0.03,-0.23,20.41,-113.34,-20.76
1.751,1.19,-0.02,-0.17,19.77,-81.77,-20.37
1.753,1.11,0.03,-0.14,-1.31,-37.76,-15.56
1.755,1.02,0.0,-0.17,-7.62,-50.29,-8.53
1.756,1.14,0.02,-0.46,-3.42,-109.47,-6.29
1.758,1.16,0.0,-0.53,-12.52,-112.7,3.24
1.76,1.0,-0.03,-0.6,2.82,-62.08,23.25
1.762,0.81,-0.07,-0.56,16.64,-24.96,37.79
1.764,0.63,-0.1,-0.35,23.86,2.96,31.4
1.766,0.88,-0.08,-0.44,12.2,-7.68,2.18
1.768,1.02,-0.03,-0.38,-4.44,18.49,-14.93
1.769,1.0,-0.03,-0.45,-4.12,32.15,-12.32
1.771,0.9,-0.04,-0.35,8.55,50.31,-6.53
1.773,0.92,-0.06,-0.33,5.95,25.97,-17.5
1.775,1.02,-0.05,-0.37,11.83,19.88,-19.4
1.777,1.02,-0.04,-0.3,22.49,26.05,-14.26
1.779,1.06,-0.02,-0.28,26.75,42.5,-10.93
1.781,1.07,-0.03,-0.14,22.85,46.55,-8.08
1.782,1.1,-0.03,-0.18,10.05,64.24,-2.27
1.784,1.05,-0.0,-0.25,-0.98,81.15,8.9
1.786,0.99,-0.03,-0.17,-3.59,79.11,14.84
1.788,0.99,-0.04,-0.18,-11.4,42.11,9.69
1.79,1.03,-0.07,-0.19,-13.04,16.43,5.53
1.792,1.01,-0.08,-0.24,-10.99,2.7,8.66
1.794,0.99,-0.09,-0.15,-3.85,2.05,5.85
1.795,0.97,-0.11,-0.17,2.69,-5.04,2.73
1.797,0.97,-0.12,-0.15,5.94,-5.33,-0.58
1.799,0.97,-0.12,-0.2,3.89,-11.18,-6.72
1.801,0.93,-0.09,-0.11,8.84,-8.98,-7.22
1.803,1.01,-0.08,-0.23,0.67,-13.34,-11.76
1.805,1.02,-0.07,-0.26,-1.65,-10.84,-12.46
1.806,1.0,-0.07,-0.22,2.78,5.27,-12.23
1.808,1.01,-0.06,-0.26,0.2,5.05,-12.6
1.81,1.06,-0.02,-0.18,5.62,8.61,-15.53
1.812,1.09,-0.01,-0.2,3.21,10.58,-17.19
1.814,1.13,-0.01,-0.22,-31.48,-37.56,-27.56
1.816,1.08,-0.03,-0.24,-20.55,-20.61,-20.44
1.818,0.98,0.0,-0.22,-8.6,-16.9,-8.52
1.819,1.11,-0.03,-0.35,-15.33,-34.46,-10.96
1.821,1.07,-0.01,-0.23,-9.88,-30.11,-5.54
1.823,1.09,-0.01,-0.31,-5.27,-23.19,-1.95
1.825,1.09,-0.01,-0.32,-5.13,-7.02,2.09
1.827,1.04,-0.03,-0.34,1.71,7.08,7.77
1.829,0.95,-0.03,-0.25,7.97,18.15,9.21
1.831,1.02,-0.02,-0.29,6.85,10.31,1.97
1.833,1.02,-0.01,-0.15,5.76,4.98,-2.84
1.835,1.07,-0.01,-0.19,-0.31,-2.32,-1.53
1.837,1.07,-0.02,-0.21,-14.2,2.64,2.32
1.838,0.99,-0.04,-0.22,-13.48,7.91,8.24
1.84,0.91,-0.05,-0.18,-12.93,10.37,8.99
1.842,0.98,-0.06,-0.27,-15.56,-3.05,3.31
1.844,1.0,-0.06,-0.27,-14.75,-9.63,-2.09
1.846,1.0,-0.04,-0.25,-6.31,-8.09,-3.13
1.848,1.01,-0.06,-0.27,-6.35,-9.76,-4.27
1.85,0.98,-0.03,-0.15,-3.31,2.09,-4.47
1.852,1.01,-0.04,-0.27,-8.0,-2.79,-5.33
1.854,0.98,-0.04,-0.21,-12.27,-2.46,-7.4
1.855,0.96,-0.03,-0.17,-11.21,-1.18,-10.92
1.857,1.02,-0.03,-0.24,-22.76,-14.47,-17.24
1.859,1.08,-0.01,-0.28,-26.84,-15.39,-19.1
1.861,1.06,-0.0,-0.28,-28.64,-0.64,-16.44
1.863,1.03,-0.01,-0.28,-19.94,4.56,-10.21
1.865,1.0,-0.0,-0.29,-14.78,11.91,-7.39
1.867,1.03,0.0,-0.29,-7.95,10.73,-9.02
1.869,1.09,0.02,-0.29,1.01,14.41,-10.47
1.871,1.11,0.05,-0.22,-5.47,30.02,-9.18
1.872,1.09,0.03,-0.23,-15.77,32.78,-3.1
1.874,1.02,0.0,-0.19,-16.34,43.47,3.13
1.876,1.03,-0.01,-0.21,-16.38,33.79,4.08
1.878,1.04,0.01,-0.22,-16.89,29.85,2.75
1.88,1.09,0.01,-0.24,-15.42,24.21,3.77
1.882,1.06,-0.01,-0.18,-13.47,35.28,6.67
1.884,0.99,-0.03,-0.13,-8.09,39.21,11.16
1.885,0.95,-0.03,-0.09,-4.41,37.48,10.46
1.887,1.02,-0.02,-0.11,-4.73,21.02,4.49
1.889,1.12,0.02,-0.15,-11.28,18.61,-1.45
1.891,1.08,0.01,-0.13,-12.2,30.5,2.18
1.892,1.03,-0.01,-0.14,-9.57,37.63,7.22
1.894,1.01,-0.03,-0.14,-6.06,38.64,8.73
1.896,1.1,-0.04,-0.11,-0.9,24.6,6.11
1.899,1.11,-0.01,-0.11,0.43,29.44,4.89
1.901,1.13,0.01,-0.04,-4.38,34.67,4.32
1.903,1.19,-0.0,-0.06,-12.21,43.15,5.91
1.904,1.12,0.02,0.0,-16.17,67.5,11.5
1.906,1.15,-0.03,0.02,-22.55,78.27,16.32
1.908,1.1,-0.03,0.07,-13.89,91.8,22.0
1.91,1.2,-0.02,-0.01,-16.67,94.46,26.06
1.912,1.17,-0.03,0.05,-15.69,116.66,37.08
1.914,1.08,-0.05,0.19,-11.59,155.07,56.38
1.916,0.95,-0.08,0.18,-15.02,168.12,67.74
1.918,0.87,-0.16,0.19,-17.54,158.05,69.86
1.92,0.93,-0.16,0.24,-13.3,130.98,63.68
1.921,0.93,-0.16,0.26,-15.27,125.36,61.68
1.924,0.93,-0.2,0.42,-18.9,143.95,62.17
1.932,0.9,-0.22,0.44,-17.91,172.87,61.5
1.934,0.86,-0.24,0.44,-20.99,182.96,64.84
1.936,0.8,-0.28,0.38,-12.99,177.88,73.95
1.938,0.78,-0.29,0.44,8.08,156.99,80.64
1.94,0.73,-0.3,0.66,30.87,160.96,85.04
1.942,0.49,-0.31,0.78,18.09,208.02,86.14
1.943,0.46,-0.36,0.83,-1.18,228.06,74.31
1.945,0.47,-0.34,0.87,-6.56,202.69,67.88
1.947,0.48,-0.35,0.85,-6.56,170.4,69.95
1.949,0.43,-0.36,0.85,-8.53,163.63,76.66
1.951,0.27,-0.36,0.76,-5.77,166.43,82.85
1.953,0.11,-0.39,0.8,4.21,161.3,85.42
1.955,0.15,-0.39,0.77,13.66,138.93,76.49
1.957,0.14,-0.38,0.9,9.31,167.36,66.52
1.958,0.05,-0.36,0.96,4.95,173.19,60.72
1.96,-0.0,-0.35,0.95,11.39,137.62,59.07
1.962,0.1,-0.34,0.93,12.49,84.2,56.55
1.964,-0.02,-0.35,0.81,0.41,92.5,58.95
1.966,-0.18,-0.38,0.83,-1.6,124.49,63.37
1.968,-0.21,-0.38,0.81,8.18,108.02,62.2
1.97,-0.18,-0.36,0.83,19.68,90.03,51.37
1.972,-0.18,-0.32,0.87,29.13,79.16,45.69
1.974,-0.24,-0.34,0.85,24.41,95.66,46.34
1.976,-0.3,-0.33,0.87,20.34,108.95,48.63
1.978,-0.42,-0.34,0.84,14.46,129.39,50.08
1.98,-0.54,-0.33,0.74,24.41,108.61,46.89
1.982,-0.49,-0.28,0.62,28.95,100.52,32.44
1.984,-0.58,-0.26,0.77,39.82,113.53,24.43
1.992,-0.5,-0.21,0.89,73.21,89.69,16.32
1.994,-0.48,-0.2,1.08,80.66,62.96,14.18
1.996,-0.42,-0.16,0.99,60.6,72.44,14.6
1.998,-0.48,-0.14,0.91,33.69,78.24,18.63
2.0,-0.7,-0.18,0.79,26.5,75.95,30.99
2.002,-0.79,-0.18,0.8,36.4,82.0,23.15
2.004,-0.72,-0.2,0.98,43.24,82.31,8.49
2.005,-0.63,-0.16,0.75,28.75,74.21,-3.31
2.007,-0.67,-0.14,0.65,10.95,89.95,-4.26
2.009,-0.75,-0.11,0.51,14.92,79.42,1.22
2.011,-0.78,-0.15,0.69,38.61,77.71,-7.4
2.013,-0.69,-0.15,0.87,69.27,51.8,-26.32
2.015,-0.71,-0.14,0.66,36.18,38.95,-21.8
2.017,-0.73,-0.13,0.69,21.53,60.35,-17.63
2.019,-0.62,-0.11,0.58,12.43,37.98,-15.79
2.021,-0.6,-0.07,0.48,29.07,60.72,-24.0
2.023,-0.73,-0.08,0.67,47.86,50.76,-16.41
2.024,-0.7,-0.06,0.52,47.82,30.89,-21.37
2.026,-0.66,-0.06,0.59,52.02,71.82,-29.73
2.028,-0.6,-0.06,0.67,49.07,56.05,-30.27
2.03,-0.57,-0.06,0.66,42.24,49.51,-15.3
2.032,-0.78,-0.07,0.68,32.73,50.37,5.27
2.034,-0.8,-0.04,0.58,29.74,36.61,12.38
2.036,-0.87,-0.04,0.57,14.4,34.09,10.41
2.038,-0.82,-0.03,0.45,11.3,57.73,1.01
2.04,-0.79,-0.02,0.51,11.4,57.88,-8.18
2.042,-0.75,-0.04,0.44,12.27,37.15,-10.98
2.044,-0.74,-0.04,0.51,19.51,42.02,-7.3
2.045,-0.85,-0.04,0.53,13.97,35.56,0.66
2.047,-0.96,-0.04,0.4,-0.84,34.55,9.59
2.049,-0.9,-0.05,0.47,9.4,44.44,-8.31
2.051,-0.85,-0.02,0.25,12.64,41.57,-16.4
2.053,-0.82,-0.04,0.44,23.83,74.85,-26.46
2.055,-0.81,-0.08,0.49,27.27,85.94,-25.48
2.057,-0.9,-0.08,0.54,23.68,59.92,-18.69
2.059,-0.99,-0.07,0.46,9.39,40.7,-7.83
2.061,-0.81,-0.1,0.32,-3.21,49.3,-14.38
2.063,-0.83,-0.07,0.3,-8.87,77.88,-17.59
2.065,-0.93,-0.07,0.23,-6.98,45.69,-3.77
2.067,-0.95,-0.09,0.19,-4.11,20.73,2.49
2.069,-0.84,-0.11,0.15,-0.76,29.6,-7.6
2.071,-0.95,-0.12,0.39,11.1,33.77,-1.65
2.072,-1.05,-0.14,0.42,19.07,-14.32,12.05
2.074,-0.9,-0.12,0.32,1.15,-4.76,9.74
2.076,-0.93,-0.05,0.2,-14.64,50.49,-0.21
2.094,-0.95,-0.05,0.2,-1.79,21.86,4.84
2.116,-1.04,-0.09,0.31,15.94,-26.46,15.21
2.135,-0.94,-0.09,0.41,16.4,-21.92,11.92
2.154,-0.95,-0.08,0.37,4.53,2.9,8.34
2.176,-0.9,-0.05,0.28,-4.89,-11.65,10.84
2.195,-0.95,-0.03,0.29,-4.2,-11.05,12.46
2.214,-1.0,-0.03,0.29,-1.13,-23.48,11.71
2.236,-1.04,-0.04,0.36,2.84,-18.63,9.71
2.255,-0.97,-0.06,0.41,-0.35,-20.73,3.63
2.274,-0.87,-0.04,0.32,-6.96,-15.27,1.1
2.296,-0.86,-0.01,0.22,-13.91,-0.79,4.53
2.315,-1.0,-0.01,0.26,-5.01,-5.4,11.01
2.333,-0.99,-0.04,0.36,6.79,-26.67,14.96
2.356,-0.97,-0.04,0.38,6.49,-31.97,8.24
2.375,-1.02,-0.03,0.39,-4.29,-9.69,4.41
2.394,-0.94,-0.02,0.33,-8.79,-13.15,-3.48
2.416,-0.89,-0.02,0.26,-8.38,-17.1,-4.84
2.434,-0.9,-0.01,0.23,-5.25,-10.08,-1.71
2.455,-0.92,-0.01,0.34,2.12,-7.02,-0.92
2.476,-0.89,-0.0,0.34,6.32,-19.95,0.5
2.494,-1.0,-0.02,0.41,3.85,-14.67,3.15
2.513,-0.93,-0.02,0.38,-0.02,-16.18,-0.38
2.536,-0.92,-0.01,0.37,-3.33,-9.83,-3.53
2.554,-0.86,0.01,0.33,-3.71,-5.19,-5.76
2.574,-0.84,0.01,0.34,0.32,-6.92,-5.48
2.595,-0.92,-0.01,0.41,4.5,-11.4,-1.16
2.614,-0.89,0.0,0.39,4.96,-22.92,1.05
2.633,-0.83,0.01,0.35,-1.5,-13.37,-4.44
2.656,-0.85,0.0,0.34,-4.03,3.57,-3.11
2.675,-0.87,-0.01,0.39,-0.38,1.47,-0.24
2.694,-0.91,-0.01,0.39,6.38,-11.82,3.48
2.716,-0.94,-0.01,0.42,5.31,-12.81,4.4
2.735,-0.89,-0.01,0.4,1.31,-6.64,1.71
2.754,-0.86,-0.0,0.37,-2.06,-4.99,-0.44
2.776,-0.89,0.01,0.35,-3.18,-0.27,0.37
2.795,-0.93,0.0,0.37,1.95,-10.61,2.72
2.814,-0.94,-0.01,0.42,6.32,-11.1,0.84
2.837,-0.95,-0.03,0.47,7.54,-19.18,0.0
2.855,-0.96,-0.02,0.44,6.11,-25.28,-2.46
2.873,-0.95,-0.01,0.46,-0.03,-19.18,-6.53
2.896,-0.88,0.0,0.42,-1.62,-17.68,-12.24
2.914,-0.82,-0.01,0.4,-3.68,-8.35,-13.69
2.933,-0.81,-0.0,0.4,-0.92,-12.35,-13.19
2.958,-0.84,-0.01,0.44,1.36,-14.32,-9.73
2.974,-0.85,-0.01,0.47,-1.6,-11.71,-9.39
2.993,-0.74,0.02,0.36,-6.49,-11.37,-15.63
3.015,-0.77,0.02,0.32,-12.47,4.46,-7.42
3.034,-0.81,0.02,0.36,-3.16,1.16,-0.69
3.053,-0.89,0.02,0.44,8.47,-17.19,5.8
3.075,-0.97,-0.01,0.56,15.16,-22.92,7.94
3.094,-0.95,-0.02,0.58,12.44,-37.95,4.11
3.113,-0.89,-0.03,0.55,0.03,-29.62,-1.6
3.135,-0.84,-0.02,0.51,-8.34,-12.49,-5.51
3.154,-0.85,0.02,0.43,-10.06,-7.11,-5.48
3.177,-0.85,0.01,0.42,-6.46,-5.92,-2.18
3.195,-0.83,-0.01,0.49,-0.06,-6.84,-2.98
3.214,-0.82,-0.01,0.49,3.11,-14.7,-3.05
3.237,-0.85,-0.0,0.51,0.02,-18.87,0.82
3.255,-0.86,-0.01,0.51,-4.11,-8.82,2.32
3.274,-0.85,-0.0,0.49,-4.75,-7.37,1.79
3.294,-0.88,-0.01,0.5,-4.17,-3.69,2.37
3.315,-0.84,-0.02,0.5,-1.33,-3.8,1.25
3.334,-0.85,-0.01,0.5,-1.04,-1.59,-2.02
3.353,-0.87,-0.01,0.49,-4.87,-4.4,0.84
3.375,-0.85,-0.01,0.49,-4.87,-1.1,-2.44
3.394,-0.78,0.01,0.49,-2.18,-5.24,-6.09
3.417,-0.83,-0.0,0.5,-1.66,-0.27,-2.78
3.435,-0.84,0.0,0.52,0.47,-1.97,0.53
3.454,-0.81,0.0,0.52,-0.09,-3.85,-0.82
3.474,-0.82,0.0,0.5,-2.23,-0.02,1.5
3.496,-0.83,0.01,0.5,-2.47,1.88,1.25
3.514,-0.82,-0.0,0.48,-2.05,-3.16,1.04
3.533,-0.81,-0.01,0.49,0.56,-0.27,0.53
3.556,-0.82,-0.01,0.51,0.49,-1.42,1.07
3.575,-0.82,-0.0,0.54,1.37,0.82,0.85
3.593,-0.85,0.01,0.55,-0.52,-5.63,3.44
3.616,-0.84,-0.01,0.51,-6.31,-4.08,6.47
3.635,-0.82,0.01,0.49,-5.97,2.18,2.11
3.653,-0.84,0.01,0.48,-8.41,4.26,3.8
3.677,-0.81,0.0,0.48,-3.53,1.24,2.9
3.695,-0.88,0.03,0.46,1.08,-4.37,0.87
3.714,-0.88,-0.0,0.53,-1.15,3.19,0.95
3.733,-0.8,-0.02,0.52,0.56,-1.76,-5.36
3.756,-0.77,-0.0,0.55,-1.77,-4.78,-3.86
3.774,-0.82,0.04,0.46,-5.51,-7.08,-0.03
3.793,-0.87,0.02,0.49,-7.3,4.41,4.34
3.816,-0.81,0.02,0.49,-5.48,8.18,1.37
3.834,-0.81,0.02,0.53,-1.02,-2.43,0.6
3.854,-0.83,0.02,0.49,-2.27,-9.13,3.62
3.876,-0.87,0.02,0.51,-4.82,-1.08,5.4
3.895,-0.83,0.01,0.5,-1.53,-1.27,1.89
3.914,-0.81,0.02,0.54,0.73,-7.56,-0.81
3.936,-0.89,0.02,0.49,-1.6,-10.26,2.21
3.955,-0.83,0.01,0.51,-2.92,-1.36,0.23
3.973,-0.83,0.01,0.49,-1.04,2.34,-5.63
3.997,-0.8,0.0,0.51,0.12,0.44,-3.08
