timestamp,acce_x,acce_y,acce_z,gyro_x,gyro_y,gyro_z
0.002,0.16,0.01,1.0,-1.91,4.15,-4.02
0.01,0.16,0.02,1.03,0.81,2.47,-3.89
0.018,0.16,0.03,1.07,-0.76,-1.48,-3.24
0.023,0.17,0.03,1.04,-1.68,0.2,-2.49
0.028,0.18,0.04,1.05,-4.06,0.99,-0.23
0.032,0.16,0.03,1.03,-5.33,-2.27,1.07
0.037,0.13,0.02,1.02,-5.6,-4.87,0.08
0.045,0.11,0.02,1.01,-5.98,-6.52,-1.59
0.05,0.1,0.01,0.99,-6.26,-7.92,-5.82
0.053,0.15,0.01,0.98,-6.02,-2.7,-8.26
0.056,0.15,0.01,0.99,-3.83,-1.02,-9.4
0.058,0.18,0.03,0.98,1.91,5.77,-8.06
0.061,0.18,0.03,1.04,5.19,5.92,-5.8
0.063,0.18,0.03,1.07,-0.15,6.06,-2.64
0.065,0.16,0.02,1.04,-4.99,0.89,-0.96
0.068,0.16,0.02,1.04,-9.16,-8.82,-1.34
0.07,0.18,-0.0,0.98,-6.26,-7.5,-0.18
0.072,0.18,0.01,0.99,-3.88,-5.5,1.13
0.074,0.18,-0.01,0.96,-0.32,0.12,0.84
0.076,0.09,-0.0,1.0,-1.73,1.36,-1.92
0.078,0.13,-0.01,1.01,-3.42,6.18,-4.43
0.079,0.14,-0.01,1.01,-3.6,3.68,-5.01
0.082,0.16,-0.01,1.06,-6.81,-2.46,-4.9
0.084,0.16,-0.02,0.98,-6.85,-8.44,-3.73
0.086,0.19,-0.01,0.96,-5.59,-12.41,-4.23
0.088,0.24,-0.01,0.96,-5.33,-6.31,-2.73
0.09,0.21,-0.02,0.92,-0.76,-1.82,-2.72
0.093,0.21,-0.0,0.98,0.99,5.33,-2.49
0.094,0.2,-0.01,0.98,0.78,8.21,0.18
0.096,0.18,-0.01,1.02,0.92,8.4,0.92
0.098,0.16,-0.01,1.02,-1.85,2.52,0.43
0.101,0.16,-0.01,1.0,-1.07,0.7,0.11
0.103,0.15,-0.01,1.02,0.81,-1.11,-0.12
0.105,0.12,0.0,1.01,0.21,-2.2,-1.8
0.107,0.14,-0.01,1.01,0.87,4.12,-3.94
0.109,0.15,0.01,1.01,-0.84,4.21,-4.43
0.111,0.14,0.0,1.04,-1.04,2.47,-3.4
0.113,0.14,0.01,1.02,-0.79,-1.33,-3.15
0.115,0.15,0.01,1.03,-1.48,-4.02,-3.42
0.117,0.16,0.01,1.02,-1.18,-3.63,-3.15
0.12,0.12,0.01,1.04,-1.27,-0.4,-5.22
0.122,0.12,-0.01,1.03,-3.48,1.83,-10.38
0.124,0.13,0.0,0.99,-3.36,-2.0,-11.62
0.126,0.09,-0.01,0.94,0.98,-12.09,-13.18
0.128,0.15,0.01,1.02,-5.56,-11.34,-16.05
0.13,0.15,0.01,1.05,-9.42,-6.79,-16.55
0.132,0.19,0.02,1.03,-12.7,-9.82,-14.78
0.134,0.18,0.01,1.0,-13.27,-17.02,-13.25
0.136,0.23,0.01,0.94,-11.77,-23.33,-12.03
0.138,0.23,-0.01,0.93,-6.49,-22.78,-9.74
0.14,0.23,-0.01,0.96,-3.04,-14.14,-9.56
0.142,0.23,-0.0,0.95,-1.89,-1.36,-8.73
0.144,0.21,-0.0,1.0,-3.51,6.46,-6.81
0.146,0.17,0.0,1.04,-6.47,5.4,-5.54
0.147,0.17,-0.0,1.01,-6.23,-4.76,-4.23
0.15,0.18,-0.01,0.99,-3.28,-16.52,-2.5
0.152,0.17,-0.01,0.98,0.72,-18.14,-0.76
0.154,0.21,-0.01,0.95,4.84,-8.17,-1.94
0.155,0.19,-0.01,1.0,3.27,4.43,-5.13
0.157,0.21,0.01,1.0,2.66,16.6,-6.43
0.159,0.18,0.01,1.0,5.91,14.5,-5.68
0.161,0.19,0.02,1.02,3.68,5.21,-7.79
0.163,0.2,0.04,1.05,2.46,-3.8,-5.21
0.165,0.23,0.03,1.06,1.04,-4.61,-1.51
0.167,0.18,0.01,1.03,0.4,-8.81,0.08
0.169,0.17,0.0,1.01,-0.55,-10.41,-2.34
0.171,0.2,-0.0,1.0,-2.08,-6.17,-5.73
0.173,0.23,-0.0,0.99,-2.44,3.24,-6.2
0.175,0.24,-0.0,1.03,-4.75,12.58,-4.66
0.177,0.22,0.0,0.97,-1.45,9.74,-2.64
0.179,0.16,-0.01,1.02,-4.6,-8.98,-4.37
0.181,0.2,-0.01,0.98,-6.46,-17.01,-4.46
0.183,0.18,-0.0,0.87,-3.71,-22.31,-6.6
0.185,0.27,-0.01,0.98,-0.93,-10.41,-4.89
0.187,0.24,-0.02,1.03,-1.92,-3.92,-3.45
0.188,0.24,0.01,1.08,-5.88,-5.01,-3.63
0.191,0.26,0.02,1.09,-9.18,-11.28,-1.24
0.193,0.24,0.0,1.03,-9.18,-31.68,3.11
0.195,0.24,-0.02,1.0,-2.78,-45.51,5.88
0.197,0.23,-0.02,1.01,-0.7,-44.24,5.04
0.199,0.27,-0.02,0.97,0.63,-24.31,2.32
0.201,0.23,-0.02,0.98,0.76,-5.24,-2.14
0.204,0.23,-0.0,1.0,2.34,5.8,-6.82
0.206,0.24,-0.01,1.0,-5.6,2.9,-9.27
0.208,0.27,-0.02,0.99,-5.08,-9.22,-8.03
0.211,0.35,-0.01,1.03,-2.7,-10.72,-2.7
0.213,0.3,-0.02,1.05,-6.82,-14.31,0.44
0.215,0.26,-0.01,1.03,-11.88,-18.7,-2.0
0.217,0.29,-0.05,0.98,-13.73,-23.01,-5.68
0.219,0.27,-0.01,0.97,-15.66,-33.28,-6.72
0.221,0.34,-0.03,0.97,-10.41,-32.64,-5.21
0.223,0.31,-0.03,0.92,-8.12,-25.44,-5.98
0.225,0.32,-0.04,0.91,-15.74,-13.1,-8.31
0.227,0.35,-0.06,0.86,-14.58,5.39,-10.02
0.23,0.33,-0.05,0.87,-11.3,20.34,-10.34
0.234,0.31,-0.04,0.88,-6.14,22.72,-9.36
0.237,0.3,-0.04,0.92,0.2,20.37,-8.06
0.239,0.27,-0.02,1.0,5.07,17.08,-5.56
0.243,0.2,-0.01,1.08,-1.13,11.76,-8.12
0.245,0.2,-0.03,1.11,-12.98,16.4,-18.73
0.248,0.24,-0.03,1.06,-19.21,17.19,-22.0
0.25,0.26,-0.04,1.0,-13.53,8.47,-19.13
0.253,0.3,-0.03,0.96,-1.86,-2.96,-13.69
0.255,0.3,-0.03,0.95,8.61,-13.15,-9.73
0.257,0.31,-0.03,1.0,4.47,-12.21,-10.18
0.259,0.3,-0.04,0.99,-6.73,-7.68,-11.74
0.261,0.29,-0.04,0.97,-11.5,-0.17,-13.62
0.263,0.31,-0.05,0.94,-6.02,-2.08,-12.52
0.265,0.34,-0.05,0.94,1.86,-0.03,-9.62
0.268,0.31,-0.03,0.97,4.75,4.37,-7.21
0.27,0.29,-0.03,1.01,4.31,4.6,-7.27
0.272,0.27,-0.03,1.02,-1.63,3.39,-11.91
0.273,0.31,-0.03,1.01,-7.47,0.18,-12.21
0.275,0.33,-0.02,0.99,-4.95,-2.73,-6.03
0.277,0.3,-0.02,0.97,-3.24,-7.5,-3.39
0.279,0.28,-0.04,0.96,-1.68,-9.57,-2.46
0.281,0.29,-0.04,0.97,-1.42,-6.03,-4.44
0.283,0.31,-0.03,0.97,-1.44,1.21,-4.9
0.286,0.32,-0.03,0.99,-2.63,7.95,-5.04
0.288,0.31,-0.03,0.96,-5.16,11.4,-5.62
0.29,0.29,-0.04,0.96,-2.5,1.83,-3.97
0.292,0.33,-0.03,0.95,1.24,-3.27,-3.22
0.294,0.33,-0.02,0.97,3.04,-0.58,0.66
0.296,0.3,-0.02,0.98,2.89,-0.09,1.13
0.297,0.27,-0.04,0.98,2.56,-2.08,0.76
0.299,0.27,-0.04,1.01,-4.06,2.5,-4.09
0.301,0.3,-0.03,0.99,-5.51,7.4,-4.78
0.303,0.29,-0.03,1.0,-2.4,7.79,-3.25
0.305,0.26,-0.04,0.98,-0.11,-0.06,-1.94
0.307,0.26,-0.03,1.02,-1.19,-4.96,-4.11
0.309,0.28,-0.03,1.0,-6.26,-3.56,-4.34
0.311,0.27,-0.03,0.98,-6.67,-3.59,-5.47
0.313,0.28,-0.03,0.98,-2.98,-2.87,-4.35
0.315,0.3,-0.03,0.97,-1.15,0.26,-4.53
0.317,0.31,-0.02,1.0,-2.47,3.27,-4.05
0.32,0.28,-0.01,0.98,-2.35,1.39,-4.06
0.322,0.3,-0.02,0.97,-2.38,-3.44,-3.25
0.325,0.27,-0.02,0.97,-2.87,-3.5,-3.51
0.327,0.31,-0.03,0.97,-4.05,-0.32,-3.33
0.33,0.28,-0.04,0.97,-1.88,2.21,-1.95
0.332,0.27,-0.03,0.97,-0.38,0.26,-1.42
0.334,0.26,-0.04,0.98,-2.87,3.05,-4.27
0.336,0.27,-0.05,0.97,-4.02,5.04,-6.46
0.338,0.29,-0.04,0.94,1.07,5.15,-5.73
0.34,0.3,-0.02,0.97,6.6,5.6,-3.51
0.342,0.29,-0.01,1.0,9.97,4.06,-2.49
0.344,0.28,-0.01,1.0,4.53,5.59,-2.85
0.347,0.27,-0.01,1.03,-0.89,4.69,-4.69
0.349,0.26,-0.02,1.01,-1.28,-2.24,-3.22
0.351,0.28,-0.02,0.97,2.09,-7.8,-2.05
0.353,0.28,-0.01,1.0,1.21,-8.99,-2.24
0.355,0.29,-0.02,1.0,0.14,-3.77,-2.08
0.357,0.27,-0.02,0.98,-1.21,-1.22,-3.42
0.359,0.28,-0.02,0.98,-1.27,-1.3,-3.82
0.36,0.28,-0.02,0.98,-0.37,-0.75,-3.18
0.362,0.29,-0.02,0.96,0.23,-0.24,-2.43
0.364,0.29,-0.02,0.97,2.05,0.15,-2.67
0.366,0.29,-0.02,0.97,2.64,4.56,-2.12
0.368,0.28,-0.01,0.99,1.5,4.73,-1.28
0.371,0.27,-0.0,0.99,-0.15,0.03,-1.21
0.373,0.29,-0.01,0.98,1.02,1.11,-1.76
0.375,0.27,-0.02,0.98,1.54,-4.37,-0.43
0.377,0.27,-0.01,1.0,1.33,-4.76,-1.5
0.379,0.29,0.0,0.99,0.17,1.16,-1.71
0.381,0.26,-0.0,1.01,-0.32,0.99,-1.79
0.383,0.25,-0.01,0.97,0.32,-4.02,-1.66
0.385,0.25,-0.01,0.99,1.07,-10.0,-2.03
0.387,0.27,-0.01,0.97,0.03,-10.12,-2.9
0.389,0.28,-0.01,0.99,0.56,-7.33,-3.92
0.391,0.3,-0.02,0.97,-0.31,-1.74,-5.37
0.393,0.3,-0.0,0.98,-0.29,2.7,-4.41
0.395,0.28,0.0,1.01,-1.56,0.67,-4.43
0.397,0.27,-0.0,1.01,-3.1,-1.31,-4.5
0.399,0.32,-0.0,1.01,-3.98,-2.03,-3.98
0.401,0.31,-0.0,0.99,-3.25,-6.76,-2.52
0.403,0.32,0.0,0.99,-1.3,-4.7,-0.26
0.405,0.3,-0.0,0.99,-1.97,-5.97,-0.02
0.407,0.28,-0.0,0.98,-3.47,-8.15,-2.18
0.408,0.28,-0.01,1.0,-7.66,-6.26,-5.54
0.411,0.31,-0.01,0.96,-7.82,-4.84,-4.87
0.413,0.31,-0.02,0.97,-4.14,-3.92,-3.45
0.415,0.31,-0.02,0.97,-2.35,-4.58,-2.99
0.417,0.32,-0.01,0.98,-2.43,-1.42,-1.62
0.419,0.3,-0.01,0.98,-2.89,-1.34,-2.23
0.421,0.32,-0.02,0.97,-3.39,-1.59,-1.98
0.423,0.31,-0.01,0.94,-1.6,-3.13,-1.73
0.425,0.31,-0.01,0.94,1.37,-2.92,-1.63
0.426,0.33,-0.02,0.97,2.47,0.23,-0.78
0.428,0.29,-0.01,0.98,1.44,1.82,-1.34
0.43,0.31,-0.01,0.99,-0.66,1.44,-2.35
0.432,0.29,-0.02,0.97,-1.44,-1.63,-2.46
0.434,0.31,-0.01,0.96,-1.05,-4.82,-2.96
0.436,0.31,-0.0,0.97,-0.47,-3.37,-2.47
0.438,0.32,-0.0,0.98,0.31,1.98,-1.86
0.439,0.3,-0.01,0.98,-0.02,4.17,-1.19
0.441,0.29,-0.01,0.99,-0.47,1.02,-2.26
0.443,0.3,-0.02,0.96,-2.34,1.8,-3.15
0.445,0.3,-0.01,0.97,-2.34,-0.09,-3.98
0.446,0.31,-0.02,0.95,0.5,0.12,-3.82
0.448,0.33,-0.0,0.97,4.12,4.0,-2.5
0.45,0.32,0.01,0.99,4.35,7.83,-0.56
0.452,0.28,0.0,1.03,1.54,4.81,-0.72
0.454,0.3,0.01,1.01,-1.24,-0.11,-0.64
0.456,0.27,0.02,1.0,-1.65,-7.22,-0.44
0.457,0.3,0.0,0.99,-0.02,-6.96,0.31
0.46,0.29,-0.01,0.98,-0.47,-3.08,-0.32
0.462,0.29,0.0,0.98,-1.34,-0.14,-2.11
0.464,0.29,-0.0,0.98,-2.14,2.98,-2.47
0.466,0.3,-0.01,0.98,-2.5,5.36,-3.48
0.468,0.3,-0.0,0.98,-1.42,2.05,-3.13
0.469,0.3,0.01,0.98,-0.35,-1.11,-2.0
0.471,0.3,0.01,0.97,0.98,-3.63,-1.54
0.473,0.32,0.01,0.98,-0.18,-3.02,-1.4
0.475,0.31,0.0,0.99,-0.96,-1.34,-0.37
0.477,0.29,0.0,0.97,-1.88,-3.22,-1.08
0.478,0.29,-0.01,0.97,-0.64,-2.53,-0.73
0.48,0.29,-0.0,0.99,-1.24,-3.77,-1.76
0.482,0.3,-0.0,0.97,-0.99,-0.75,-1.73
0.484,0.27,0.0,0.99,-1.73,-2.72,-4.14
0.486,0.3,-0.0,0.97,-3.11,-2.72,-4.41
0.488,0.31,0.0,1.0,-3.95,-6.56,-4.6
0.49,0.34,-0.01,1.0,-4.52,-6.76,-2.05
0.491,0.31,-0.0,1.0,-4.29,-9.1,-0.2
0.493,0.31,0.0,1.01,-6.29,-13.08,1.28
0.495,0.33,0.01,1.0,-5.56,-13.65,1.31
0.497,0.34,0.01,1.0,-7.36,-6.52,2.47
0.498,0.33,0.01,1.02,-12.27,-5.22,2.4
0.5,0.36,-0.0,0.92,-4.11,-9.79,4.63
0.502,0.33,-0.01,0.97,-3.89,-18.26,5.48
0.504,0.35,-0.0,0.95,-3.74,-21.21,5.07
0.506,0.37,-0.01,0.93,-2.08,-18.32,5.6
0.508,0.33,-0.02,0.95,-0.64,-15.74,3.22
0.509,0.34,-0.04,0.94,-1.18,-7.6,0.85
0.511,0.32,-0.03,0.95,-5.15,-5.31,-0.98
0.513,0.33,-0.03,0.94,-3.77,-2.85,-3.6
0.515,0.36,-0.02,0.95,-2.41,-0.63,-5.19
0.517,0.37,-0.01,0.93,-4.43,2.02,-6.44
0.518,0.37,-0.01,0.95,-4.05,1.68,-5.79
0.52,0.37,-0.02,0.94,-0.81,-1.79,-4.53
0.522,0.35,-0.01,0.95,0.37,-4.55,-3.19
0.524,0.37,-0.01,0.95,0.35,-3.4,-3.22
0.526,0.38,-0.01,0.94,-1.33,-1.86,-3.37
0.527,0.38,-0.02,0.94,-1.31,-1.11,-3.63
0.529,0.35,-0.01,0.96,-1.65,-3.28,-3.95
0.531,0.34,-0.03,0.95,-2.55,-6.52,-5.74
0.533,0.37,-0.02,0.95,-2.46,-6.21,-5.91
0.535,0.37,-0.02,0.94,-1.6,-2.35,-5.54
0.537,0.37,-0.02,0.93,1.83,2.73,-4.99
0.539,0.36,-0.01,0.97,0.92,6.41,-6.06
0.541,0.36,-0.01,0.97,0.82,4.98,-6.61
0.542,0.35,-0.01,1.0,-0.37,2.75,-6.6
0.544,0.37,0.0,1.01,-2.6,-1.33,-6.0
0.546,0.37,0.0,0.98,-3.86,-3.3,-4.55
0.548,0.38,-0.01,0.96,-4.05,-6.53,-2.89
0.55,0.38,-0.01,0.94,-3.31,-6.93,-2.96
0.552,0.39,-0.02,0.94,-2.56,-2.61,-3.16
0.553,0.37,-0.01,0.95,-3.57,-0.15,-3.66
0.555,0.37,-0.02,0.94,-2.69,-0.75,-2.87
0.557,0.36,-0.01,0.94,-0.85,-3.21,-2.06
0.559,0.38,-0.01,0.94,0.26,-2.84,-1.37
0.561,0.37,-0.02,0.94,0.75,-1.13,-1.82
0.563,0.37,-0.01,0.94,0.43,2.49,-1.82
0.565,0.37,-0.01,0.97,0.09,5.91,-1.4
0.566,0.35,-0.0,0.96,0.43,0.32,-2.2
0.568,0.36,-0.01,0.96,-0.26,-4.69,-3.27
0.57,0.37,-0.01,0.97,-1.88,-6.12,-2.73
0.572,0.37,-0.01,0.97,-2.32,-7.45,-3.13
0.574,0.39,-0.01,0.96,-0.63,-8.26,-2.92
0.575,0.39,-0.02,0.93,2.76,-10.89,-1.45
0.577,0.38,-0.01,0.93,4.12,-11.36,-1.5
0.579,0.42,-0.0,0.96,6.03,-8.11,-0.35
0.581,0.4,0.02,0.98,5.77,-8.81,1.39
0.583,0.39,0.01,1.02,0.4,-24.9,0.85
0.585,0.4,0.02,1.02,-1.88,-37.79,2.85
0.587,0.43,0.02,0.98,0.06,-45.16,5.07
0.589,0.45,-0.03,0.97,7.4,-65.79,5.73
0.591,0.47,0.01,0.95,0.34,-54.89,6.02
0.593,0.38,0.03,0.97,2.0,-54.53,5.76
0.594,0.42,0.01,1.03,-1.69,-66.49,9.16
0.596,0.39,-0.0,0.96,-13.22,-88.03,7.82
0.598,0.49,-0.03,0.85,-9.56,-97.76,6.12
0.6,0.48,-0.03,1.02,-15.6,-87.37,-8.14
0.602,0.62,-0.02,0.82,1.94,-75.92,0.17
0.604,0.69,0.0,0.91,-1.63,-50.89,7.34
0.606,0.65,0.02,0.81,4.44,-51.31,15.94
0.608,0.57,-0.01,0.86,-3.24,-60.32,15.91
0.61,0.57,-0.01,0.8,-19.74,-67.33,8.76
0.612,0.59,-0.04,0.75,-13.95,-99.69,5.13
0.614,0.68,-0.05,0.68,2.43,-116.18,16.27
0.616,0.7,-0.06,0.7,-7.16,-115.86,18.61
0.618,0.71,-0.02,0.78,-13.95,-120.79,18.06
0.62,0.79,-0.02,0.78,-16.26,-121.44,25.13
0.622,0.7,-0.05,0.68,-39.74,-115.47,12.67
0.624,0.88,-0.05,0.52,-43.79,-134.06,8.53
0.626,0.79,-0.11,0.48,-30.43,-141.25,1.69
0.628,0.86,-0.1,0.49,-26.08,-139.74,-1.04
0.63,0.83,-0.1,0.53,-31.34,-130.95,-3.18
0.631,0.82,-0.1,0.4,-20.06,-144.61,-1.25
0.634,0.88,-0.13,0.31,-12.99,-148.21,-1.45
0.636,0.98,-0.13,0.23,-4.2,-148.46,5.42
0.638,0.92,-0.08,0.36,-23.77,-161.07,7.33
0.64,0.9,-0.09,0.16,-32.17,-141.1,1.45
0.642,1.0,-0.12,-0.01,-24.85,-122.2,-10.0
0.644,1.19,-0.1,-0.08,-30.12,-72.12,-15.47
0.646,1.35,-0.04,0.04,-54.92,2.29,-6.9
0.648,1.22,-0.0,0.07,-75.37,32.66,3.18
0.649,1.11,-0.05,0.05,-71.57,37.95,10.34
0.651,1.0,-0.13,-0.04,-49.18,29.83,12.24
0.653,0.97,-0.18,0.02,-34.37,2.32,5.89
0.655,0.97,-0.21,-0.02,-12.46,-16.55,2.21
0.657,0.92,-0.17,0.14,-11.56,-29.27,-9.8
0.659,1.01,-0.15,0.17,-24.12,-20.5,-17.62
0.661,1.1,-0.14,0.15,-34.85,10.96,-18.52
0.663,1.26,-0.13,0.03,-46.11,56.29,-17.83
0.665,1.18,-0.05,0.02,-41.68,93.89,-2.52
0.667,1.02,-0.06,0.33,-48.78,68.89,-1.16
0.669,1.0,-0.11,0.16,-47.15,30.92,-0.14
0.671,0.98,-0.14,0.19,-39.02,1.59,5.39
0.673,0.88,-0.2,0.27,-39.65,-24.15,-2.29
0.674,0.98,-0.16,0.19,-47.82,-14.6,0.2
0.676,0.98,-0.16,0.16,-42.32,0.24,-1.18
0.678,1.03,-0.17,0.06,-29.15,17.3,-2.26
0.68,0.99,-0.19,0.12,-10.37,21.83,-7.51
0.682,0.93,-0.17,0.17,-13.85,12.72,-14.92
0.684,0.95,-0.16,0.17,-8.75,4.92,-17.77
0.686,1.0,-0.12,0.26,-11.39,-4.61,-13.44
0.688,1.07,-0.11,0.17,-9.04,-6.21,-9.65
0.69,1.04,-0.12,0.2,-9.28,-0.99,-4.76
0.692,1.02,-0.12,0.21,-12.47,-4.66,-5.47
0.694,1.0,-0.13,0.16,-9.28,-3.92,-7.51
0.696,1.02,-0.13,0.16,-5.07,-0.31,-5.56
0.698,1.0,-0.12,0.22,-14.31,-9.57,-7.33
0.7,1.05,-0.11,0.21,-15.13,-8.92,-6.41
0.702,1.04,-0.12,0.17,-12.23,-4.64,-2.79
0.704,1.0,-0.11,0.25,-22.41,-10.7,-5.37
0.706,1.04,-0.12,0.11,-16.52,-16.46,-2.87
0.707,1.0,-0.14,0.16,-10.61,-14.0,-1.18
0.709,0.87,-0.21,0.31,-19.71,-36.38,-10.44
0.711,1.04,-0.13,0.06,-19.98,-37.1,-13.11
0.713,1.02,-0.12,0.08,-6.05,-27.4,-8.53
0.715,0.99,-0.18,0.07,7.92,-29.62,-9.31
0.717,1.07,-0.12,0.05,11.85,-11.5,-2.55
0.719,1.03,-0.09,0.15,-3.8,-10.23,-3.54
0.721,1.04,-0.12,0.11,-3.5,-5.74,-2.09
0.723,1.04,-0.12,0.08,2.23,-8.12,-1.37
0.725,1.02,-0.13,0.06,5.71,-11.83,-1.94
0.727,1.01,-0.12,0.06,4.7,-16.06,-2.58
0.729,1.0,-0.12,0.1,-7.94,-11.91,-3.89
0.731,1.03,-0.11,0.13,-11.82,-13.31,-5.39
0.732,1.06,-0.11,0.07,-8.18,-11.69,-2.87
0.734,1.05,-0.12,0.04,-3.54,-9.13,-2.5
0.736,1.07,-0.12,0.06,0.0,-7.25,1.31
0.738,1.01,-0.11,0.11,-6.92,-14.85,2.43
0.74,1.03,-0.12,0.08,-11.36,-17.47,0.18
0.742,1.04,-0.1,0.11,-18.56,-18.38,0.38
0.744,1.06,-0.11,0.07,-21.91,-18.11,4.08
0.746,1.07,-0.13,0.02,-21.27,-12.78,6.9
0.748,1.06,-0.14,-0.01,-16.85,-14.7,9.44
0.75,1.04,-0.13,0.04,-17.91,-17.83,9.68
0.752,1.07,-0.13,-0.01,-22.18,-23.73,10.85
0.754,1.13,-0.22,-0.0,-44.23,-23.48,7.91
0.755,1.19,-0.17,-0.29,-41.19,-18.92,13.05
0.762,1.09,-0.14,-0.27,-8.6,-8.9,21.15
0.764,1.04,-0.15,-0.28,32.75,-7.86,21.34
0.766,0.98,-0.17,-0.15,53.42,-25.68,10.78
0.768,1.2,-0.15,-0.52,97.15,-18.7,14.95
0.769,1.29,-0.18,-0.62,171.08,11.39,29.16
0.771,1.4,-0.06,-0.99,284.08,74.26,60.55
0.773,1.29,0.13,-0.95,433.27,101.82,92.82
0.775,0.99,0.4,-0.74,500.26,83.11,120.5
0.777,0.89,0.52,-0.42,500.26,41.02,137.65
0.779,1.14,0.37,-0.22,500.26,-62.37,157.59
0.78,1.16,0.56,-0.46,500.26,-108.06,166.12
0.782,0.94,0.8,-0.14,500.26,-127.11,114.24
0.784,0.8,0.9,0.84,489.95,-140.14,37.6
0.786,0.95,0.71,1.0,308.46,-137.54,-0.47
0.788,1.11,0.52,1.01,203.34,-107.82,-14.78
0.79,1.12,0.42,1.05,97.08,-57.33,-8.73
0.792,1.03,0.27,0.74,36.73,-33.15,0.03
0.794,1.05,0.24,0.58,-20.26,24.21,11.04
0.795,0.91,0.18,0.43,-45.73,69.02,7.65
0.797,0.86,0.16,0.39,-60.05,138.47,-13.31
0.799,0.88,0.11,0.27,-61.02,185.88,-44.87
0.801,0.89,0.1,0.33,-52.47,107.45,-48.21
0.803,0.97,0.16,0.28,-23.66,-29.16,-21.13
0.805,1.02,0.08,0.35,-47.37,-98.09,3.15
0.807,0.96,0.1,0.5,-66.03,-145.44,19.56
0.808,1.03,0.06,0.29,-88.92,-121.57,19.21
0.81,1.08,0.04,0.17,-103.5,-63.54,9.62
0.812,1.05,-0.02,0.23,-96.05,-16.26,-6.17
0.814,1.05,-0.01,0.26,-114.67,19.07,-13.65
0.816,1.08,-0.01,0.32,-137.54,41.05,-14.85
0.818,1.08,0.03,0.25,-144.05,18.78,-10.17
0.82,1.05,0.06,0.31,-138.15,-4.49,-3.1
0.822,1.11,0.06,0.39,-160.58,5.65,3.68
0.823,1.09,0.06,0.31,-178.52,20.05,8.27
0.825,1.05,0.04,0.34,-188.08,24.89,15.6
0.827,0.98,0.04,0.34,-198.06,24.75,17.48
0.829,0.95,0.03,0.18,-207.45,13.31,13.66
0.831,1.12,0.04,-0.01,-185.65,-6.6,27.57
0.832,1.18,0.0,0.2,-184.55,42.2,39.83
0.835,1.0,-0.05,0.12,-186.0,89.31,37.68
0.836,0.85,-0.13,-0.04,-165.82,85.63,13.42
0.839,0.87,-0.23,0.04,-137.73,74.98,-7.16
0.841,0.91,-0.23,0.17,-142.56,89.05,-20.93
0.842,0.92,-0.17,0.23,-157.08,90.21,-30.99
0.844,0.91,-0.17,0.24,-181.19,77.44,-43.08
0.846,1.03,-0.27,-0.13,-161.11,44.21,-58.96
0.848,1.17,-0.34,-0.09,-124.87,67.3,-52.34
0.85,1.02,-0.26,0.32,-145.31,82.61,-51.57
0.852,0.99,-0.16,0.44,-186.26,97.98,-53.25
0.854,0.88,-0.19,0.27,-198.21,77.37,-51.62
0.856,1.04,-0.27,0.01,-166.73,48.98,-44.5
0.857,1.07,-0.23,0.05,-119.45,31.97,-31.28
0.859,0.8,-0.24,0.41,-131.02,1.28,-32.52
0.861,0.85,-0.22,0.44,-174.12,-7.76,-44.43
0.863,1.15,-0.23,0.05,-198.56,2.11,-50.87
0.865,1.24,-0.26,-0.26,-141.94,40.14,-24.21
0.867,0.97,-0.25,-0.16,-91.74,13.08,-20.79
0.868,0.96,-0.33,0.1,-46.95,-17.01,-16.99
0.87,0.82,-0.35,0.22,-40.98,-32.72,-22.32
0.872,0.93,-0.29,0.27,-59.65,-29.21,-34.9
0.874,1.1,-0.25,0.18,-62.49,-7.97,-29.16
0.876,1.07,-0.25,0.14,-51.21,8.12,-23.22
0.878,1.04,-0.27,0.07,-27.62,12.34,-16.78
0.879,1.06,-0.3,0.01,7.5,6.0,-8.32
0.881,0.94,-0.25,0.3,-8.34,-25.69,-17.18
0.883,0.92,-0.22,0.29,-26.18,-43.1,-27.01
0.885,0.99,-0.22,0.29,-41.66,-46.78,-31.57
0.887,1.12,-0.22,0.09,-27.89,-33.18,-19.47
0.889,1.09,-0.23,0.03,-6.95,-17.16,-4.27
0.89,1.03,-0.24,0.01,6.5,-13.6,2.84
0.892,0.99,-0.21,-0.01,19.79,-5.68,6.0
0.894,0.86,-0.22,0.22,3.82,-16.44,-5.83
0.896,0.98,-0.22,0.09,-12.47,-13.3,-17.28
0.898,1.03,-0.22,0.08,-16.02,-9.42,-17.65
0.9,1.06,-0.2,0.06,-12.24,-3.98,-13.11
0.902,1.03,-0.2,0.13,-13.45,-7.89,-12.17
0.903,1.03,-0.21,0.12,-14.79,-9.69,-10.92
0.905,1.05,-0.22,0.13,-14.85,-10.02,-8.12
0.907,1.05,-0.21,0.13,-16.89,-9.33,-6.03
0.909,1.02,-0.21,0.13,-18.99,-2.24,-2.9
0.911,1.02,-0.23,0.08,-24.67,0.96,-3.31
0.913,1.01,-0.24,-0.01,-12.72,6.53,0.34
0.915,1.0,-0.24,-0.03,-0.12,1.48,0.52
0.917,0.96,-0.22,-0.02,4.72,-10.29,-5.59
0.918,1.0,-0.21,0.03,0.31,-20.85,-10.02
0.92,1.03,-0.19,0.04,-2.23,-11.45,-8.96
0.922,1.05,-0.21,0.0,-0.52,-0.73,-4.44
0.924,1.03,-0.21,-0.01,4.41,5.98,-2.99
0.925,1.01,-0.2,0.06,6.84,7.77,-2.63
0.927,1.02,-0.2,0.07,6.35,12.18,-2.6
0.929,0.99,-0.22,0.1,4.38,9.48,-4.87
0.932,1.03,-0.2,0.09,3.5,2.09,-5.6
0.934,1.02,-0.21,0.11,3.62,2.79,-4.53
0.936,1.02,-0.2,0.1,1.42,-1.82,-4.14
0.937,1.0,-0.2,0.15,-3.42,-7.68,-5.98
0.939,1.01,-0.2,0.11,-6.92,-10.64,-8.4
0.941,1.04,-0.19,0.07,-5.53,-9.88,-7.63
0.943,1.04,-0.2,0.05,1.51,-3.33,-5.36
0.945,1.02,-0.18,0.06,1.97,-7.68,-6.7
0.946,1.05,-0.18,0.07,2.95,-3.66,-5.42
0.948,1.03,-0.18,0.09,-1.68,-9.73,-5.85
0.95,1.03,-0.2,0.04,0.27,-10.08,-4.31
0.952,1.03,-0.22,0.01,7.79,-4.24,-2.29
0.954,1.0,-0.19,0.12,4.32,-4.35,-2.55
0.956,1.05,-0.19,0.07,2.66,-0.03,-2.92
0.957,1.03,-0.21,0.11,3.27,5.65,-0.11
0.959,1.03,-0.2,0.09,3.36,5.47,0.67
0.961,0.99,-0.19,0.11,-0.75,-1.31,-1.5
0.963,1.03,-0.19,0.07,-2.85,-5.27,-1.01
0.965,1.03,-0.19,0.06,-1.04,-2.61,0.73
0.967,1.03,-0.19,0.11,-6.95,-4.29,0.49
0.968,1.04,-0.21,0.04,-8.35,-0.05,0.53
0.97,1.02,-0.21,0.02,-4.2,2.14,2.38
0.972,1.01,-0.21,-0.01,0.79,3.02,1.31
0.974,1.0,-0.22,0.02,5.44,-1.22,0.58
0.976,0.98,-0.19,0.09,0.66,-7.4,-3.27
0.978,1.0,-0.21,0.1,-4.4,-7.5,-5.83
0.979,1.05,-0.19,0.07,-4.56,-5.42,-3.19
0.981,1.04,-0.19,0.06,-3.28,-3.88,-0.73
0.983,1.03,-0.2,0.07,-2.61,-2.12,0.75
0.985,1.01,-0.21,0.05,-1.54,-4.12,0.56
0.987,1.0,-0.21,0.08,-2.17,-7.21,-0.02
0.989,0.99,-0.21,0.06,-4.61,-6.52,-2.43
0.991,1.02,-0.21,0.05,-7.42,-1.91,-4.67
0.993,1.01,-0.2,0.04,-5.33,-0.75,-5.82
0.994,1.02,-0.22,0.05,-2.26,-0.21,-5.07
0.996,1.02,-0.2,0.04,-0.87,1.07,-5.62
0.998,1.03,-0.2,0.08,-1.85,-3.79,-5.45
1.0,1.04,-0.2,0.04,-1.65,-1.79,-4.6
1.002,1.04,-0.19,0.05,-3.71,-0.4,-3.74
1.004,1.02,-0.2,0.07,-8.4,-6.73,-4.63
1.005,1.04,-0.19,0.06,-9.47,-9.42,-3.28
1.007,1.02,-0.2,0.07,-9.65,-13.44,-2.02
1.009,1.01,-0.2,0.03,-13.98,-13.25,-2.76
1.011,1.04,-0.2,0.01,-12.06,-11.42,-2.75
1.013,1.06,-0.18,-0.01,-8.47,-9.25,-1.15
1.015,1.04,-0.19,0.02,-4.96,-6.41,-0.26
1.017,1.03,-0.2,0.02,-3.83,-3.57,1.51
1.018,0.99,-0.19,0.05,-4.37,-5.88,0.61
1.02,1.01,-0.2,0.02,-6.66,-10.0,-2.99
1.022,1.03,-0.2,0.0,-4.89,-12.05,-3.48
1.024,1.03,-0.21,-0.04,-0.11,-10.21,-3.08
1.026,1.01,-0.21,0.0,-1.13,-8.5,-4.7
1.028,1.02,-0.2,-0.02,2.66,-10.31,-5.63
1.03,1.04,-0.2,-0.03,8.79,-8.09,-5.22
1.031,1.06,-0.19,0.01,21.04,-7.02,-1.18
1.033,1.04,-0.19,-0.1,35.73,-16.17,1.27
1.035,1.07,-0.19,-0.07,61.56,-16.53,8.9
1.037,0.98,-0.19,0.06,54.72,-12.87,9.5
1.039,1.02,-0.21,-0.17,76.34,-27.77,7.76
1.041,1.03,-0.18,-0.11,89.05,-17.59,8.76
1.043,1.05,-0.21,-0.01,88.95,-0.44,11.22
1.044,1.09,-0.2,-0.06,102.21,28.5,14.47
1.046,1.06,-0.21,-0.04,102.05,33.07,14.43
1.048,1.06,-0.21,-0.06,113.59,59.82,16.27
1.05,1.01,-0.22,0.07,117.65,33.62,16.34
1.052,1.0,-0.23,0.01,125.91,15.74,17.39
1.054,1.01,-0.19,0.07,139.16,3.95,21.91
1.056,0.95,-0.23,0.32,113.1,-26.05,15.62
1.058,0.98,-0.22,0.18,73.91,-44.73,7.27
1.059,1.08,-0.26,0.01,75.79,-36.46,4.92
1.061,1.15,-0.26,-0.14,112.29,-9.33,16.38
1.063,1.07,-0.27,-0.07,135.68,28.67,21.63
1.065,0.94,-0.25,0.13,124.81,45.31,15.54
1.067,0.92,-0.18,0.28,102.99,50.69,9.94
1.069,0.92,-0.18,0.37,72.44,23.88,8.52
1.071,0.92,-0.2,0.2,56.32,12.2,6.64
1.072,0.96,-0.19,0.13,62.15,-16.58,7.47
1.074,0.96,-0.22,0.22,60.64,-33.54,9.34
1.076,0.97,-0.22,0.17,57.31,-34.43,8.24
1.078,0.96,-0.2,0.23,44.84,-31.51,3.1
1.08,1.03,-0.24,0.12,39.01,-23.33,1.51
1.081,1.08,-0.24,0.05,47.27,-6.2,3.18
1.083,1.05,-0.25,0.05,69.11,12.87,6.73
1.085,1.02,-0.19,0.18,78.72,20.89,14.63
1.087,0.96,-0.18,0.28,72.55,3.16,15.56
1.089,0.96,-0.16,0.29,63.08,-14.53,11.15
1.091,0.98,-0.17,0.27,55.57,-26.5,9.02
1.092,0.97,-0.18,0.28,51.33,-28.87,6.49
1.094,0.97,-0.21,0.12,49.08,-33.05,0.98
1.096,0.93,-0.19,0.25,51.95,-30.52,-8.15
1.098,0.99,-0.18,0.17,56.34,-29.05,-12.06
1.1,1.04,-0.16,0.13,67.15,-26.03,-11.13
1.102,1.09,-0.14,0.18,78.75,-17.71,0.2
1.104,1.11,-0.15,0.1,87.44,-12.84,10.79
1.106,1.0,-0.17,0.15,92.55,1.08,5.68
1.108,1.0,-0.15,0.21,90.0,18.52,-2.47
1.109,1.0,-0.15,0.23,93.08,22.72,-1.74
1.111,1.03,-0.14,0.18,106.99,28.11,-0.7
1.113,1.07,-0.16,0.07,138.99,30.75,5.39
1.115,0.98,-0.1,0.19,163.76,17.22,12.47
1.117,0.95,-0.02,0.4,155.79,-3.01,19.04
1.118,0.94,-0.13,0.19,164.46,-38.89,22.15
1.12,0.89,-0.13,0.02,235.68,-67.33,11.31
1.13,1.09,-0.09,0.08,269.48,-52.38,1.47
1.149,1.17,-0.06,0.24,261.18,-6.08,11.95
1.172,1.08,-0.05,0.12,258.44,15.05,23.63
1.191,1.0,-0.0,0.21,269.1,8.85,18.79
1.21,0.93,0.02,0.3,242.89,11.05,9.01
1.232,0.96,0.03,0.2,266.63,-9.98,4.44
1.251,1.09,0.13,0.22,261.04,-4.64,11.71
1.269,1.04,0.06,0.2,215.74,-18.38,23.68
1.292,0.94,0.01,0.17,205.77,-20.37,20.12
1.311,0.98,0.04,0.27,175.51,-52.37,13.77
1.334,1.08,0.16,0.32,103.39,-47.4,18.43
1.352,1.07,0.07,0.09,108.18,-36.89,22.21
1.37,1.07,-0.01,0.01,159.36,-52.95,16.79
1.393,1.12,0.13,0.07,124.11,-22.47,11.37
1.412,1.03,0.18,0.23,102.32,-2.89,4.17
1.431,1.01,0.14,0.11,96.52,-11.73,7.47
1.449,1.05,0.18,0.19,83.89,-8.29,8.2
1.474,1.1,0.06,0.02,81.63,15.65,7.34
1.491,1.08,0.12,0.1,76.29,25.62,15.57
1.509,0.97,0.08,0.01,105.54,8.12,18.69
1.532,1.02,0.19,0.2,94.14,-7.86,12.7
1.551,1.07,0.27,0.21,59.98,11.1,13.89
1.57,1.02,0.15,0.12,56.09,17.74,11.59
1.593,1.02,0.13,0.06,60.67,-11.98,12.2
1.611,1.1,0.16,0.15,56.08,-7.31,22.5
1.63,0.98,0.14,0.16,49.88,8.29,21.8
1.653,0.96,0.1,0.12,41.59,6.05,12.84
1.672,0.96,0.1,0.17,35.79,-8.12,4.79
1.69,1.0,0.1,0.19,29.44,-14.75,0.75
1.709,1.07,0.14,0.13,21.11,2.02,-0.34
1.732,1.07,0.17,0.14,23.57,13.15,1.31
1.751,1.04,0.18,0.18,12.75,5.5,9.82
1.77,1.08,0.16,0.13,1.47,12.49,10.52
1.793,1.03,0.1,0.13,1.76,4.92,8.49
1.812,1.03,0.04,0.11,6.63,3.94,8.47
1.831,0.99,-0.01,0.1,16.35,-3.73,0.9
1.851,0.98,0.04,0.19,9.11,-5.47,-6.2
1.873,1.01,0.07,0.22,-2.27,-9.51,-6.35
1.891,1.01,0.11,0.21,-20.69,-12.99,-7.31
1.909,1.07,0.02,0.06,-14.87,-6.29,-14.03
1.933,1.11,-0.0,0.01,3.11,-0.31,-2.5
1.951,1.09,0.04,0.08,13.15,8.75,8.87
1.97,0.91,0.08,0.25,6.17,6.41,5.37
1.989,0.96,0.13,0.21,-2.14,3.37,-0.75
2.012,0.95,0.07,0.18,-13.31,-10.08,-8.03
2.03,1.06,0.04,0.09,-13.08,-7.85,-11.4
2.05,1.11,0.01,0.04,0.31,0.4,-4.23
2.07,1.11,0.04,0.08,9.36,9.36,6.31
2.09,1.08,0.07,0.08,12.78,6.27,10.05
2.112,0.99,0.06,0.14,3.11,9.13,6.92
2.131,0.98,0.05,0.19,-2.76,5.53,0.85
2.15,1.0,0.02,0.12,-0.26,-1.27,-3.36
2.173,1.03,0.0,0.09,8.41,-2.53,-2.81
2.192,1.02,-0.01,0.13,18.12,-1.11,-1.27
2.211,1.04,0.06,0.14,16.89,4.03,2.41
2.23,1.01,0.08,0.18,8.0,0.47,0.85
2.25,1.0,0.1,0.2,-5.05,-3.08,-2.76
2.272,1.03,0.06,0.15,-10.44,-5.31,-7.25
2.291,1.07,0.03,0.11,-5.08,4.85,-5.01
2.309,1.06,0.03,0.11,2.7,6.02,0.72
2.332,1.04,0.06,0.16,1.27,5.47,2.14
2.351,1.02,0.06,0.16,-3.25,6.43,-1.31
2.37,1.01,0.04,0.14,-3.86,0.7,-3.36
2.393,1.01,0.03,0.15,-4.67,-2.67,-3.91
2.412,1.03,0.03,0.13,-3.13,1.82,-5.59
2.431,1.03,0.06,0.16,-2.92,5.73,-3.66
2.45,1.04,0.07,0.14,-4.5,2.69,0.72
2.47,1.01,0.05,0.16,-6.02,1.48,2.05
2.49,1.01,0.04,0.15,-6.9,1.07,-1.36
2.513,1.01,0.04,0.13,-6.75,-2.82,-4.29
2.532,1.06,0.06,0.16,-9.37,-0.47,-2.18
2.551,1.05,0.03,0.13,-10.15,2.08,-2.43
2.57,1.07,0.03,0.13,-6.17,8.76,0.35
2.59,1.05,0.04,0.14,-4.78,9.4,2.49
2.61,1.0,0.03,0.16,-4.56,8.43,-0.27
2.633,0.99,0.03,0.18,-4.66,3.28,-4.24
2.652,1.03,0.04,0.17,-6.05,-1.65,-5.02
2.671,1.04,0.04,0.15,-6.23,-3.04,-3.45
2.69,1.04,0.04,0.15,-7.33,-1.57,-1.69
2.728,1.06,0.01,0.11,-5.33,2.47,-0.12
2.736,1.05,0.04,0.14,-4.32,2.64,1.31
2.75,1.01,0.03,0.16,-2.93,1.07,1.28
2.77,0.99,0.02,0.15,-3.76,-0.09,-2.05
2.793,1.03,0.01,0.16,-3.13,-2.08,-5.36
2.812,1.03,0.03,0.14,-4.12,-2.08,-4.63
2.83,1.08,0.04,0.14,-0.2,-1.3,-0.79
2.851,1.04,0.03,0.14,-0.23,4.76,1.92
2.87,1.01,0.03,0.17,1.59,-1.05,0.35
2.889,1.04,0.05,0.17,-1.44,5.01,-0.82
2.913,1.02,0.04,0.17,-2.47,6.34,-1.16
2.932,1.0,0.02,0.16,0.96,-6.15,-2.67
2.951,1.01,0.03,0.17,-0.85,-1.69,-2.17
2.97,1.01,0.05,0.19,-3.51,-0.69,-3.53
2.992,1.03,0.03,0.14,-2.37,-3.92,-4.26
3.011,1.04,0.03,0.16,-1.08,0.7,-0.98
3.029,1.03,0.06,0.17,-4.89,-0.38,-1.89
3.053,1.07,0.05,0.17,-6.38,1.89,0.08
3.07,1.02,0.03,0.13,-4.12,1.51,2.9
3.09,1.03,0.03,0.18,-4.93,-0.64,-0.08
3.113,1.02,0.04,0.16,-7.18,2.2,-0.93
3.132,1.03,0.04,0.15,-5.05,1.86,-0.29
3.151,1.02,0.03,0.17,-5.53,3.05,0.4
3.17,1.0,0.03,0.18,-5.97,-3.22,-1.57
3.193,1.01,0.03,0.18,-8.03,-2.02,-1.79
3.212,1.05,0.0,0.14,-7.36,-2.26,-3.21
3.231,1.06,0.01,0.13,-4.96,0.32,1.08
3.25,1.03,0.02,0.14,-5.05,3.68,1.65
3.27,1.04,0.04,0.17,-8.11,7.98,-1.3
3.293,1.02,0.06,0.16,-10.79,2.66,-2.29
3.312,1.07,0.05,0.13,-11.85,-1.3,-0.96
3.331,1.04,0.02,0.14,-9.89,-2.15,0.21
3.35,1.04,0.0,0.15,-5.94,-3.28,0.56
3.372,1.03,-0.01,0.15,-5.68,4.12,0.76
3.391,0.98,0.02,0.19,-1.28,-0.81,-1.42
3.41,1.01,0.01,0.18,-5.16,5.51,-2.67
3.433,1.01,0.02,0.18,-6.06,5.69,-3.74
3.451,1.04,0.03,0.18,-7.77,9.15,-3.94
3.47,1.03,0.01,0.16,-2.37,2.43,-1.92
3.493,1.04,0.02,0.15,-0.17,-2.66,1.01
3.512,1.04,0.02,0.17,-0.21,1.07,0.64
3.53,1.03,0.04,0.21,-2.06,5.86,0.18
3.55,1.0,0.04,0.22,-4.75,-1.27,-1.39
3.573,1.05,0.02,0.18,-6.15,-4.37,-3.1
3.592,1.06,-0.0,0.14,-6.73,2.12,-2.21
3.611,1.02,0.0,0.16,-2.44,0.03,-0.08
3.63,1.02,0.01,0.2,-1.45,-0.95,-0.89
3.652,1.05,0.02,0.19,-6.0,6.29,-4.31
3.671,1.03,-0.01,0.17,-4.35,5.19,-3.6
3.69,1.05,-0.0,0.17,0.44,5.48,-0.43
3.712,1.03,0.01,0.18,0.95,8.95,-0.4
3.73,1.0,0.02,0.2,1.71,5.28,1.19
3.75,0.99,0.03,0.22,-3.18,1.5,-1.02
3.772,1.0,0.02,0.22,-3.31,-5.33,-4.18
3.791,1.0,0.02,0.2,-5.77,-3.33,-5.04
3.81,1.02,0.02,0.18,-5.11,-5.07,-5.71
3.832,1.05,0.01,0.19,-3.89,-1.28,-3.13
3.851,1.03,0.01,0.19,-4.79,1.02,-1.34
3.87,1.02,-0.01,0.17,-5.8,-3.01,-4.67
3.893,1.08,-0.0,0.14,-0.66,5.57,-1.91
3.911,1.04,0.01,0.17,0.41,11.77,1.53
3.93,1.01,0.02,0.2,-1.39,6.44,-0.55
3.953,1.0,0.04,0.21,-4.75,1.44,-2.26
3.972,0.98,0.04,0.21,-6.7,-0.53,-3.77
3.991,1.03,0.03,0.19,-4.37,-4.82,-4.29
