timestamp,acce_x,acce_y,acce_z,gyro_x,gyro_y,gyro_z
0.002,0.92,0.34,-0.35,5.63,-2.78,-4.92
0.012,0.94,0.34,-0.35,3.68,1.01,-1.8
0.019,0.9,0.32,-0.34,4.52,7.71,-0.4
0.024,0.9,0.34,-0.3,-0.14,-4.66,-6.44
0.028,0.96,0.34,-0.37,0.02,-0.47,-4.9
0.033,0.95,0.35,-0.36,0.9,3.69,-1.59
0.036,0.94,0.34,-0.37,0.35,3.5,-0.17
0.038,0.91,0.33,-0.36,1.6,5.95,0.02
0.04,0.91,0.34,-0.29,-2.53,-10.03,-5.76
0.042,0.96,0.34,-0.37,-3.07,-7.28,-4.0
0.044,0.96,0.34,-0.37,-1.74,0.96,-0.21
0.046,0.94,0.35,-0.39,-0.12,2.89,1.63
0.048,0.89,0.32,-0.35,2.87,6.95,2.03
0.05,0.86,0.33,-0.28,0.61,-5.47,-3.73
0.052,0.93,0.34,-0.35,-2.21,-10.56,-5.63
0.054,0.96,0.34,-0.38,-1.83,-1.33,-3.07
0.056,0.93,0.34,-0.39,0.0,3.16,-0.29
0.058,0.91,0.33,-0.37,2.66,6.98,-0.47
0.06,0.93,0.33,-0.36,6.5,6.31,-0.81
0.062,0.94,0.35,-0.35,3.39,-0.02,-1.85
0.064,0.95,0.34,-0.36,2.58,5.63,1.13
0.065,0.93,0.33,-0.35,3.22,8.23,3.21
0.067,0.92,0.33,-0.35,5.24,7.48,3.31
0.069,0.97,0.34,-0.37,2.89,12.24,4.11
0.071,1.0,0.36,-0.36,0.29,25.56,10.03
0.072,1.01,0.37,-0.4,-7.18,37.97,13.69
0.074,1.04,0.38,-0.32,-6.58,52.95,24.2
0.077,1.04,0.35,-0.39,-9.11,51.22,26.15
0.079,1.08,0.37,-0.4,-9.11,60.43,27.92
0.081,1.25,0.39,-0.43,-9.94,87.4,38.96
0.082,1.35,0.38,-0.42,-11.45,139.42,60.61
0.084,1.39,0.4,-0.41,-15.42,202.76,79.45
0.086,1.49,0.33,-0.41,-20.27,266.23,100.87
0.088,1.31,0.31,-0.23,-8.76,299.79,126.99
0.09,1.19,0.24,-0.17,8.18,313.86,153.51
0.092,0.97,0.16,-0.06,14.7,303.79,149.1
0.094,0.87,0.08,-0.06,30.43,304.0,139.37
0.096,0.81,0.05,0.2,13.3,326.44,123.47
0.098,0.74,0.04,0.38,-6.06,338.75,122.27
0.1,0.66,-0.03,0.56,-29.39,395.65,119.69
0.101,0.58,-0.13,0.48,-30.24,424.98,123.39
0.103,0.33,-0.06,0.46,-43.86,379.83,134.84
0.105,0.34,-0.22,0.58,-18.37,367.07,145.21
0.107,0.27,-0.16,0.73,-22.31,371.54,151.77
0.11,0.08,-0.11,0.72,-28.96,404.21,174.72
0.112,-0.37,-0.17,0.71,3.24,361.18,142.26
0.113,-0.54,-0.21,0.75,25.13,248.73,87.15
0.115,-0.38,-0.23,0.79,34.27,264.99,63.54
0.117,-0.22,-0.14,0.71,30.89,269.92,59.56
0.119,-0.21,-0.08,0.71,31.02,235.65,72.95
0.121,-0.14,-0.03,0.48,15.34,248.37,90.09
0.123,-0.3,0.01,0.52,10.27,254.14,106.08
0.124,-0.54,0.01,0.52,12.58,217.62,107.02
0.127,-0.68,-0.05,0.51,9.42,169.47,85.24
0.129,-0.62,0.05,0.22,-1.82,176.79,92.99
0.13,-0.74,0.08,0.2,23.91,193.71,98.31
0.132,-0.92,0.05,0.35,53.27,165.16,80.73
0.135,-0.8,0.14,0.39,42.17,156.55,73.69
0.137,-0.74,0.15,0.35,33.05,166.18,78.27
0.138,-0.9,0.15,0.41,25.07,139.59,82.11
0.14,-1.1,0.17,0.43,16.47,108.75,79.18
0.142,-1.13,0.14,0.46,29.37,65.39,49.13
0.144,-1.06,0.15,0.48,15.42,57.79,44.02
0.146,-1.04,0.17,0.46,13.6,79.65,53.16
0.148,-1.29,0.12,0.54,14.89,34.37,46.56
0.15,-1.43,0.05,0.47,18.18,-27.92,17.51
0.151,-1.3,0.11,0.4,17.82,-33.63,-7.83
0.153,-1.15,0.13,0.32,11.56,-4.24,-12.17
0.155,-1.13,0.11,0.3,8.05,1.22,-16.69
0.157,-1.04,0.15,0.2,11.04,-4.21,-22.17
0.159,-1.02,0.15,0.17,19.48,-7.83,-22.5
0.161,-1.0,0.16,0.23,24.31,-12.17,-25.08
0.163,-0.87,0.22,0.16,31.1,1.22,-17.15
0.165,-0.88,0.24,0.25,33.71,13.16,-8.7
0.167,-1.05,0.16,0.48,21.24,-9.89,-12.4
0.169,-1.0,0.17,0.45,10.18,-25.97,-26.93
0.171,-0.93,0.2,0.4,-5.08,0.79,-25.77
0.172,-0.88,0.23,0.33,-17.01,29.13,-18.5
0.174,-0.84,0.23,0.26,-10.35,41.88,-6.79
0.176,-0.95,0.19,0.25,-0.55,12.44,-9.83
0.178,-0.86,0.19,0.11,10.11,8.6,-11.28
0.18,-0.94,0.13,0.23,14.4,10.11,-17.11
0.182,-0.83,0.15,0.35,4.24,14.9,-15.85
0.184,-0.81,0.16,0.34,-10.76,12.29,-8.85
0.186,-0.84,0.17,0.26,-21.85,-5.31,-1.21
0.187,-1.01,0.14,0.23,-8.55,-26.72,-3.86
0.189,-0.96,0.16,0.18,12.56,-21.33,-15.57
0.191,-0.95,0.13,0.33,12.81,-9.3,-19.63
0.193,-0.91,0.14,0.41,3.76,-24.76,-21.92
0.195,-0.85,0.13,0.45,-6.66,-36.18,-16.26
0.197,-0.83,0.16,0.35,-16.58,-19.65,-5.24
0.199,-0.9,0.14,0.3,-14.49,1.25,1.48
0.2,-1.05,0.13,0.3,-9.4,-22.49,-8.6
0.202,-0.95,0.14,0.26,2.49,-22.34,-12.26
0.204,-0.96,0.1,0.38,3.44,-30.53,-15.44
0.206,-0.91,0.09,0.38,-4.12,-29.77,-12.26
0.208,-0.93,0.12,0.34,-6.03,-16.03,-4.73
0.21,-1.01,0.09,0.37,-0.81,-31.95,-1.65
0.212,-1.11,0.06,0.45,4.18,-58.58,-3.05
0.214,-1.07,0.04,0.41,5.36,-68.27,-12.61
0.215,-1.04,0.06,0.43,-1.28,-55.22,-21.15
0.217,-0.94,0.05,0.5,-13.45,-58.76,-28.89
0.219,-0.69,0.1,0.38,-12.12,-21.54,-19.8
0.221,-0.73,0.1,0.4,-13.07,-25.04,-9.94
0.223,-0.73,0.14,0.37,-5.51,-52.49,-8.98
0.224,-0.77,0.12,0.43,3.39,-74.9,-11.36
0.226,-0.77,0.13,0.51,11.24,-82.03,-14.99
0.228,-0.74,0.1,0.6,5.34,-90.35,-14.75
0.23,-0.81,0.06,0.63,-1.91,-104.06,-16.02
0.232,-0.83,0.04,0.68,-10.58,-115.02,-22.95
0.234,-0.85,0.03,0.63,-13.05,-105.05,-26.64
0.236,-0.85,0.03,0.63,-14.06,-104.95,-31.53
0.237,-0.89,-0.0,0.69,-7.77,-108.76,-41.18
0.239,-0.87,0.01,0.69,-5.07,-112.76,-55.95
0.241,-0.92,-0.0,0.81,-0.18,-140.11,-82.11
0.244,-0.81,-0.05,0.78,15.85,-189.89,-105.15
0.246,-0.58,-0.03,0.8,12.9,-182.87,-98.56
0.247,-0.5,-0.06,0.86,-4.52,-139.92,-84.81
0.263,-0.44,-0.05,0.9,-32.82,-100.84,-67.07
0.282,-0.49,-0.1,0.89,-33.98,-104.49,-64.52
0.3,-0.53,-0.11,0.81,-22.95,-130.78,-72.34
0.322,-0.43,-0.14,0.69,-0.17,-156.5,-73.91
0.343,-0.38,-0.12,0.81,18.69,-151.21,-71.63
0.364,-0.29,-0.12,1.0,15.19,-138.15,-74.31
0.382,-0.21,-0.1,0.99,4.98,-119.71,-68.95
0.401,-0.08,-0.08,0.94,-0.78,-135.68,-60.99
0.423,-0.0,-0.09,0.89,0.09,-137.59,-50.05
0.441,0.04,-0.07,0.92,2.15,-121.4,-38.38
0.461,0.02,-0.06,0.96,9.3,-111.74,-31.18
0.483,0.04,-0.09,1.01,10.12,-110.5,-29.11
0.501,0.05,-0.09,1.1,9.34,-107.6,-26.6
0.524,0.07,-0.1,1.19,-0.9,-114.24,-25.59
0.542,0.08,-0.09,1.19,-8.78,-132.89,-26.89
0.56,0.19,-0.1,1.0,-13.44,-154.55,-22.49
0.583,0.18,-0.1,0.88,-13.62,-164.92,-17.59
0.601,0.19,-0.14,0.88,-10.34,-166.41,-21.77
0.62,0.25,-0.17,0.88,-6.79,-158.76,-26.84
0.642,0.3,-0.15,0.75,2.0,-162.73,-30.89
0.66,0.41,-0.14,0.68,14.5,-160.02,-30.06
0.684,0.43,-0.09,0.67,17.15,-158.53,-34.17
0.702,0.51,-0.08,0.73,16.52,-148.93,-38.73
0.721,0.59,-0.05,0.75,23.79,-135.97,-40.69
0.743,0.63,-0.04,0.76,36.29,-147.24,-39.07
0.761,0.59,-0.04,0.74,41.16,-169.27,-41.39
0.78,0.63,-0.02,0.68,32.6,-180.66,-45.22
0.802,0.76,0.03,0.62,29.21,-172.6,-42.29
0.821,0.92,0.04,0.62,27.68,-161.73,-33.56
0.844,0.92,0.09,0.72,26.24,-173.24,-20.24
0.862,0.86,0.12,0.67,23.92,-192.76,-2.24
0.881,0.7,0.06,0.46,13.56,-208.72,-8.41
0.903,0.75,0.0,0.32,-0.29,-198.12,-21.82
0.922,0.77,0.02,0.42,-30.32,-200.63,-35.57
0.941,0.74,-0.05,0.26,-28.75,-201.42,-51.51
0.963,0.81,0.04,0.15,-33.45,-195.86,-64.47
0.981,0.9,0.06,0.03,-24.46,-168.87,-69.42
1.0,0.93,0.09,-0.1,-15.5,-146.21,-68.82
1.022,0.93,0.15,-0.12,-7.63,-138.21,-75.15
1.041,0.92,0.18,-0.17,-1.07,-138.26,-76.89
1.063,0.99,0.2,-0.22,7.51,-126.41,-77.04
1.082,1.0,0.25,-0.1,-0.79,-118.2,-72.66
1.1,0.95,0.29,-0.11,-10.29,-122.52,-66.43
1.123,1.01,0.32,-0.24,-26.18,-115.92,-65.08
1.141,1.1,0.35,-0.41,-26.82,-86.2,-53.82
1.164,1.11,0.38,-0.5,-15.16,-75.74,-44.4
1.183,1.09,0.39,-0.4,-13.86,-62.08,-35.63
1.201,1.08,0.41,-0.3,-27.77,-48.66,-28.93
1.223,1.04,0.34,-0.16,-43.1,-49.82,-19.79
1.242,0.9,0.33,-0.41,-18.24,-84.95,-20.95
1.26,0.91,0.33,-0.48,-8.44,-72.12,-30.9
1.283,1.04,0.4,-0.5,-3.71,-32.66,-25.36
1.301,1.03,0.46,-0.42,-12.61,-3.3,-10.7
1.32,0.96,0.44,-0.37,-24.02,3.59,-2.0
1.343,0.92,0.4,-0.34,-28.56,-1.94,-1.05
1.361,0.94,0.39,-0.48,-20.61,6.11,3.39
1.38,0.89,0.38,-0.52,-2.64,-0.5,0.15
1.403,0.83,0.35,-0.38,5.74,-16.58,-8.7
1.421,0.82,0.35,-0.34,4.84,-36.61,-18.73
1.441,0.91,0.37,-0.36,2.0,-39.97,-19.69
1.47,0.95,0.41,-0.31,-8.53,-37.73,-17.31
1.482,0.95,0.42,-0.38,-11.47,-16.03,-9.48
1.504,0.91,0.41,-0.44,-7.86,-8.4,-4.09
1.523,0.86,0.39,-0.41,-7.73,-3.1,-5.33
1.541,0.87,0.38,-0.41,-2.76,-2.4,-8.7
1.56,0.95,0.42,-0.39,-0.34,-8.0,-9.4
1.582,1.02,0.47,-0.42,-2.2,-0.69,1.19
1.601,0.98,0.46,-0.37,-7.27,4.64,15.05
1.621,0.9,0.41,-0.44,-7.36,9.71,23.31
1.643,0.78,0.36,-0.41,-12.99,8.46,18.0
1.662,0.79,0.33,-0.47,-7.45,-0.61,6.6
1.681,0.81,0.33,-0.43,1.54,-0.87,-3.56
1.703,0.85,0.33,-0.36,4.27,-4.02,-11.19
1.722,0.92,0.36,-0.36,4.55,3.86,-11.51
1.741,0.96,0.4,-0.37,0.56,19.5,-7.4
1.763,0.96,0.4,-0.36,1.01,21.6,-1.71
1.782,0.91,0.41,-0.34,-2.84,16.92,-2.34
1.801,0.92,0.41,-0.34,-5.79,4.23,-3.63
1.823,0.92,0.4,-0.37,-3.59,-3.47,-4.23
1.843,0.92,0.39,-0.4,-0.78,-5.91,-4.5
1.861,0.9,0.39,-0.41,4.87,-8.18,-3.02
1.883,0.88,0.39,-0.38,4.02,-11.42,-4.7
1.902,0.89,0.4,-0.37,-0.27,-5.5,-4.89
1.921,0.91,0.39,-0.39,-2.27,1.19,-2.14
1.943,0.89,0.39,-0.42,-0.02,3.36,-0.56
1.962,0.88,0.39,-0.39,-0.4,6.0,-2.37
1.981,0.89,0.39,-0.39,2.32,8.37,-1.77
2.0,0.89,0.4,-0.34,1.82,8.14,-1.11
2.023,0.89,0.39,-0.34,-0.66,5.63,-1.22
2.042,0.89,0.39,-0.33,-5.22,-0.56,-2.12
2.061,0.92,0.38,-0.36,-8.49,1.59,-2.02
2.083,0.95,0.4,-0.36,-11.71,11.51,2.73
2.101,0.95,0.4,-0.3,-19.97,20.67,8.96
2.121,0.94,0.38,-0.33,-19.91,24.63,14.4
2.143,0.87,0.36,-0.36,-17.39,16.67,11.31
2.162,0.83,0.35,-0.39,-10.2,3.65,2.81
2.181,0.85,0.36,-0.42,0.41,-8.34,-7.11
2.203,0.9,0.39,-0.37,4.38,-17.21,-12.89
2.222,0.96,0.39,-0.39,9.02,-9.22,-10.66
2.241,0.99,0.43,-0.36,5.31,-2.12,-5.42
2.263,1.02,0.43,-0.35,3.16,13.5,5.1
2.282,0.97,0.43,-0.32,-1.83,16.66,12.35
2.301,0.91,0.4,-0.35,-2.12,16.81,15.59
2.323,0.87,0.38,-0.37,-0.99,5.79,11.19
2.342,0.86,0.35,-0.39,4.87,4.18,6.85
2.36,0.84,0.35,-0.35,5.83,-2.64,0.99
2.384,0.86,0.34,-0.32,7.34,1.54,-1.8
2.402,0.86,0.34,-0.25,-0.6,-0.26,-4.37
2.421,0.91,0.35,-0.35,-0.31,6.95,-3.21
2.44,0.88,0.37,-0.35,4.32,8.14,-4.38
2.463,0.89,0.36,-0.34,3.95,0.76,-6.43
2.482,0.9,0.36,-0.36,7.39,1.01,-6.82
2.501,0.9,0.35,-0.38,12.85,1.18,-7.3
2.523,0.94,0.38,-0.35,12.44,-7.92,-8.43
2.542,0.97,0.38,-0.38,13.24,1.13,-3.04
2.561,0.95,0.36,-0.38,18.82,12.87,2.05
2.584,0.88,0.37,-0.31,16.23,7.25,-0.18
2.602,0.9,0.35,-0.29,7.86,4.34,-2.41
2.62,0.9,0.36,-0.3,3.94,0.6,-7.08
2.644,0.98,0.37,-0.34,2.99,-1.31,-3.6
2.665,0.95,0.38,-0.33,-0.32,6.14,-0.05
2.681,0.95,0.38,-0.28,-12.24,7.31,4.03
2.7,0.96,0.37,-0.31,-14.21,11.5,8.32
2.723,0.93,0.34,-0.37,-12.56,12.69,9.68
2.741,0.9,0.33,-0.34,-4.26,4.23,7.01
2.761,0.89,0.34,-0.36,-6.0,3.04,2.34
2.783,0.92,0.34,-0.34,-1.73,5.69,-0.61
2.802,0.92,0.35,-0.32,-0.23,6.21,-1.33
2.822,0.92,0.36,-0.25,-4.61,4.96,-1.76
2.843,0.95,0.34,-0.31,-6.78,7.34,-1.76
2.862,0.95,0.36,-0.3,-7.92,2.9,-4.05
2.881,1.1,0.39,-0.35,-14.64,17.57,1.15
2.903,1.12,0.43,-0.34,-11.37,41.16,17.82
2.922,1.07,0.42,-0.25,-13.86,48.84,29.63
2.941,1.01,0.39,-0.26,-15.45,43.63,34.18
2.963,0.97,0.33,-0.26,-13.47,30.7,32.38
2.982,0.95,0.3,-0.25,-9.8,24.95,27.86
3.001,1.0,0.27,-0.25,-3.69,28.66,22.03
3.023,1.07,0.29,-0.17,0.58,34.6,23.68
3.042,1.05,0.29,-0.11,-0.23,35.44,30.29
3.061,0.95,0.29,-0.03,-15.57,14.98,29.05
3.083,0.91,0.27,-0.15,-19.92,6.47,24.56
3.102,0.84,0.22,-0.23,-14.99,-7.86,16.32
3.121,0.81,0.22,-0.26,-3.36,-14.66,6.38
3.143,0.82,0.22,-0.23,3.48,-19.97,-4.6
3.162,0.84,0.24,-0.2,6.49,-15.37,-12.63
3.181,0.89,0.23,-0.25,7.5,-8.44,-15.05
3.203,0.86,0.22,-0.19,7.6,-3.68,-17.82
3.222,0.86,0.25,-0.22,4.02,-19.97,-26.05
3.241,0.89,0.26,-0.2,6.14,-24.55,-31.44
3.263,1.01,0.29,-0.21,2.99,-23.02,-27.11
3.282,1.02,0.31,-0.24,-0.29,-12.17,-19.19
3.301,1.04,0.34,-0.26,-0.03,-4.31,-13.05
3.323,1.02,0.33,-0.28,1.05,2.27,-7.98
3.342,0.96,0.32,-0.24,-0.05,-1.74,-8.81
3.36,0.98,0.32,-0.28,1.25,-8.4,-9.57
3.383,0.96,0.3,-0.26,3.31,-9.45,-12.27
3.402,1.01,0.31,-0.25,2.49,-13.04,-13.44
3.421,1.02,0.3,-0.23,2.89,-8.21,-11.33
3.443,1.06,0.34,-0.22,-4.43,-0.53,-6.44
3.462,1.1,0.36,-0.23,-10.72,17.15,3.27
3.481,1.04,0.35,-0.21,-16.84,11.37,8.31
3.509,0.97,0.31,-0.28,-13.69,6.58,7.33
3.522,0.93,0.3,-0.27,-8.69,-8.9,3.16
3.541,0.91,0.29,-0.29,-0.72,-15.24,-0.09
3.564,0.91,0.3,-0.3,6.15,-10.93,-4.2
3.582,0.95,0.31,-0.26,7.08,-11.19,-5.07
3.601,0.92,0.3,-0.23,4.87,-2.11,-5.11
3.623,0.91,0.31,-0.19,2.05,0.27,-5.13
3.642,0.87,0.3,-0.2,-4.93,-6.4,-9.63
3.661,0.92,0.3,-0.27,-1.57,-10.85,-11.8
3.684,0.93,0.3,-0.29,3.98,-11.08,-11.62
3.702,0.91,0.31,-0.31,8.34,-4.52,-13.18
3.721,0.94,0.31,-0.23,6.52,-8.05,-14.31
3.744,0.96,0.32,-0.25,4.92,-17.1,-14.11
3.762,0.99,0.34,-0.26,2.73,-9.44,-13.15
3.781,1.01,0.36,-0.25,-3.36,-4.61,-9.34
3.804,1.02,0.35,-0.28,-6.66,1.3,-4.5
3.822,0.98,0.35,-0.27,-7.76,1.33,-1.95
3.841,0.98,0.33,-0.3,-5.98,-1.76,-2.95
3.861,0.96,0.34,-0.29,-3.83,-5.59,-3.02
3.886,0.97,0.33,-0.31,-0.82,-3.18,-2.43
3.902,0.98,0.34,-0.32,0.11,-2.92,-2.08
3.92,0.97,0.34,-0.31,2.21,4.18,0.23
3.94,0.95,0.34,-0.26,0.55,2.72,0.09
3.96,0.95,0.34,-0.29,1.1,3.73,0.02
3.98,0.91,0.33,-0.27,0.49,0.75,-1.65
