timestamp,acce_x,acce_y,acce_z,gyro_x,gyro_y,gyro_z
0.007,0.95,0.34,-0.33,2.26,-1.16,-3.77
0.012,0.95,0.33,-0.31,5.25,4.92,-2.02
0.019,0.95,0.33,-0.24,-0.9,-2.84,-3.36
0.024,0.97,0.33,-0.28,-0.31,1.76,-0.46
0.028,0.96,0.33,-0.27,0.03,5.34,1.47
0.032,0.94,0.34,-0.26,-1.76,3.63,-0.02
0.035,0.94,0.32,-0.26,0.66,4.73,0.2
0.038,0.92,0.32,-0.24,-1.1,-0.61,-1.83
0.041,0.93,0.32,-0.28,-1.91,-3.05,-5.48
0.043,0.96,0.33,-0.27,-1.62,-4.46,-5.47
0.045,1.0,0.34,-0.3,-0.63,3.48,-2.75
0.047,0.98,0.35,-0.25,0.02,5.51,1.82
0.049,0.94,0.35,-0.28,-2.61,-0.08,1.31
0.051,0.93,0.33,-0.38,-4.2,8.72,3.44
0.053,0.92,0.35,-0.43,-5.21,19.02,0.12
0.055,1.03,0.34,-0.37,4.41,31.25,0.29
0.058,1.06,0.36,-0.22,8.27,34.81,4.84
0.06,1.12,0.37,-0.11,-4.47,43.11,9.98
0.062,1.34,0.43,-0.21,-31.57,83.57,29.79
0.064,1.53,0.59,-0.21,-59.95,138.18,63.22
0.066,1.61,0.53,-0.33,-76.03,216.55,109.51
0.068,1.33,0.41,-0.28,-67.05,236.49,133.54
0.07,1.12,0.31,-0.25,-55.85,223.65,137.76
0.072,1.02,0.21,-0.22,-32.73,205.4,132.81
0.074,1.01,0.18,-0.31,-0.85,220.38,123.33
0.077,1.04,0.11,-0.25,22.72,280.64,128.24
0.079,0.87,0.07,-0.19,45.79,360.26,127.42
0.081,0.68,0.1,-0.12,69.37,424.18,122.61
0.083,0.62,0.2,0.27,85.11,475.91,128.09
0.085,0.53,0.13,0.69,67.13,500.26,147.27
0.087,0.26,0.03,0.93,12.67,500.26,157.42
0.089,0.11,0.03,0.98,-16.78,441.37,156.52
0.091,0.0,0.0,0.8,-25.54,290.53,154.32
0.093,-0.15,-0.08,0.52,-5.1,263.98,135.88
0.095,-0.3,-0.11,0.62,16.41,307.45,107.89
0.097,-0.44,-0.08,0.75,29.18,340.93,85.77
0.1,-0.37,-0.02,0.84,31.28,341.31,67.44
0.101,-0.19,0.06,0.96,-7.85,259.92,70.6
0.103,-0.09,0.2,0.74,-47.07,216.72,102.99
0.105,-0.34,0.14,0.57,-34.99,198.47,127.82
0.108,-0.57,0.12,0.47,-17.45,203.3,144.14
0.11,-0.76,0.1,0.37,-6.09,197.39,139.6
0.112,-0.92,0.08,0.4,9.19,180.41,127.54
0.114,-0.97,0.11,0.4,28.76,149.24,106.76
0.116,-0.8,0.17,0.48,30.5,138.89,97.71
0.118,-0.76,0.18,0.57,22.29,139.02,107.16
0.12,-0.82,0.17,0.47,26.92,138.87,108.78
0.122,-1.21,0.09,0.67,29.88,88.15,85.73
0.124,-1.15,0.14,0.68,18.6,41.24,44.96
0.126,-1.12,0.14,0.74,11.68,42.18,34.81
0.128,-1.12,0.16,0.69,-0.44,3.86,15.16
0.13,-1.0,0.18,0.68,-12.15,7.5,9.05
0.132,-1.05,0.19,0.58,-3.68,8.67,-3.4
0.134,-0.92,0.18,0.52,-4.46,7.89,-12.72
0.136,-0.9,0.21,0.45,-9.57,16.82,-14.81
0.138,-0.85,0.23,0.39,-7.74,-8.78,-20.87
0.14,-0.77,0.26,0.26,-2.89,-5.44,-19.05
0.142,-0.81,0.22,0.34,4.93,9.82,-13.33
0.144,-0.8,0.23,0.46,5.88,14.96,-11.39
0.146,-0.87,0.24,0.44,7.36,20.55,-2.99
0.148,-0.96,0.21,0.51,8.98,-1.15,-9.57
0.15,-0.91,0.24,0.49,5.79,-0.64,-13.16
0.152,-0.89,0.23,0.47,7.54,21.82,-7.42
0.154,-0.89,0.21,0.53,3.82,8.55,-7.22
0.156,-0.84,0.22,0.51,1.66,6.2,-1.05
0.158,-0.85,0.22,0.47,-1.62,8.32,4.11
0.16,-0.84,0.21,0.45,-0.78,9.27,1.31
0.162,-0.8,0.21,0.47,-5.48,14.26,0.63
0.164,-0.76,0.22,0.4,-6.18,13.39,1.48
0.165,-0.78,0.24,0.4,-1.18,9.86,3.6
0.167,-0.76,0.26,0.39,2.32,2.55,7.69
0.169,-0.83,0.25,0.41,3.94,-4.89,10.27
0.171,-0.86,0.23,0.38,6.09,-4.2,1.18
0.173,-0.83,0.22,0.41,4.43,14.03,1.68
0.175,-0.85,0.22,0.46,2.53,4.72,0.98
0.177,-0.82,0.25,0.46,0.46,-4.56,0.6
0.179,-0.82,0.26,0.45,-0.09,-2.37,2.67
0.181,-0.91,0.25,0.46,-0.03,-4.95,0.76
0.183,-0.88,0.23,0.44,1.36,4.35,-3.11
0.185,-0.86,0.21,0.45,0.87,9.82,-2.09
0.187,-0.9,0.23,0.41,3.66,-1.68,-4.76
0.188,-0.88,0.23,0.43,4.31,-0.34,-8.08
0.19,-0.85,0.24,0.38,6.37,22.15,-5.71
0.192,-0.93,0.2,0.46,5.25,16.47,-12.06
0.194,-0.91,0.22,0.42,-0.72,8.29,-21.89
0.196,-0.83,0.24,0.4,0.84,26.53,-21.56
0.198,-0.72,0.26,0.42,-1.24,27.53,-11.19
0.2,-0.79,0.23,0.43,1.3,-1.77,3.22
0.201,-0.88,0.2,0.41,2.41,-32.43,3.44
0.203,-0.88,0.21,0.38,-0.2,-14.08,4.05
0.205,-0.98,0.2,0.39,-3.33,3.97,-4.12
0.207,-0.89,0.23,0.36,-6.89,17.07,-10.72
0.209,-0.89,0.22,0.37,-2.61,16.73,-8.27
0.211,-0.89,0.22,0.38,3.01,-2.21,-5.92
0.213,-0.87,0.21,0.36,4.14,-11.65,-7.01
0.215,-0.87,0.2,0.4,2.14,-1.85,-7.77
0.217,-0.87,0.21,0.4,-4.44,4.31,-8.43
0.218,-0.83,0.21,0.36,-6.64,3.22,-9.73
0.22,-0.82,0.21,0.32,-4.53,5.66,-7.69
0.222,-0.86,0.23,0.38,-1.1,8.27,-4.4
0.224,-0.85,0.23,0.4,1.56,3.3,-2.93
0.226,-0.86,0.22,0.42,0.87,-5.45,-3.88
0.228,-0.85,0.21,0.41,-1.27,-1.57,-2.58
0.23,-0.85,0.22,0.4,-2.61,-1.83,-1.18
0.232,-0.91,0.21,0.4,-2.46,-6.47,-6.29
0.233,-0.91,0.21,0.35,1.27,3.91,-12.93
0.235,-0.88,0.21,0.35,3.44,9.22,-17.95
0.237,-0.85,0.19,0.37,4.41,7.59,-15.02
0.239,-0.84,0.21,0.39,3.94,-3.94,-13.59
0.241,-0.84,0.21,0.41,4.78,-11.05,-8.02
0.243,-0.83,0.2,0.41,3.51,-16.18,-2.17
0.244,-0.87,0.19,0.42,-1.8,-15.28,2.0
0.246,-0.91,0.18,0.41,-5.5,-10.85,2.93
0.248,-0.95,0.18,0.41,-6.67,-12.2,-5.25
0.25,-0.89,0.19,0.38,-4.89,-3.11,-6.17
0.251,-0.94,0.17,0.4,-0.85,-13.16,-7.92
0.253,-0.91,0.17,0.43,-1.34,-23.82,-10.32
0.255,-0.91,0.17,0.44,-0.79,-19.69,-10.92
0.257,-0.9,0.15,0.48,-4.24,-29.77,-13.11
0.259,-0.9,0.16,0.48,-8.53,-45.6,-15.6
0.261,-0.89,0.17,0.44,-9.08,-35.83,-17.65
0.263,-0.96,0.15,0.47,-7.76,-37.54,-26.55
0.265,-1.08,0.12,0.56,-4.29,-73.21,-46.23
0.267,-1.05,0.1,0.58,2.63,-107.47,-69.86
0.268,-0.9,0.09,0.6,0.84,-118.56,-74.03
0.27,-0.8,0.08,0.7,-5.94,-136.96,-68.49
0.272,-0.79,0.05,0.7,-7.4,-146.49,-58.58
0.274,-0.97,0.04,0.73,-6.58,-152.53,-69.3
0.276,-0.82,0.03,0.76,-13.16,-144.53,-82.35
0.278,-0.65,0.04,0.71,-26.96,-136.98,-80.46
0.295,-0.61,0.04,0.71,-27.77,-153.08,-66.46
0.312,-0.58,0.02,0.67,-15.19,-181.22,-57.28
0.336,-0.71,-0.03,0.73,-7.05,-171.86,-60.2
0.354,-0.68,-0.02,0.9,-19.05,-123.31,-79.83
0.373,-0.45,-0.01,0.9,-45.01,-93.48,-81.68
0.395,-0.31,-0.03,0.8,-53.65,-112.11,-69.77
0.413,-0.3,-0.02,0.67,-35.83,-142.47,-55.22
0.436,-0.36,-0.06,0.6,6.7,-174.66,-48.53
0.454,-0.33,-0.11,0.7,36.26,-169.22,-55.85
0.473,-0.25,-0.12,0.87,32.26,-131.68,-62.79
0.495,-0.23,-0.1,0.94,24.85,-118.06,-65.89
0.514,-0.13,-0.1,0.91,24.24,-126.81,-63.91
0.536,-0.04,-0.09,0.92,21.21,-112.7,-60.18
0.555,0.02,-0.1,0.96,26.79,-97.04,-55.22
0.573,0.03,-0.01,1.01,38.09,-101.62,-48.29
0.595,0.04,-0.05,0.93,54.64,-130.98,-46.69
0.614,0.13,-0.03,0.92,61.89,-152.75,-43.74
0.633,0.19,-0.05,0.99,53.39,-146.67,-40.5
0.655,0.2,0.02,1.09,36.6,-125.04,-36.47
0.674,0.18,0.0,1.1,24.47,-112.87,-38.63
0.696,0.34,0.05,1.02,20.35,-120.56,-34.12
0.715,0.38,0.04,1.0,16.34,-132.6,-24.41
0.733,0.39,0.06,0.94,14.49,-134.2,-14.44
0.756,0.4,0.07,0.88,11.82,-128.6,-14.37
0.775,0.44,0.05,0.89,7.86,-124.11,-16.15
0.793,0.44,0.06,0.96,2.58,-132.17,-20.7
0.816,0.52,0.06,0.88,1.98,-135.88,-16.35
0.834,0.51,0.06,0.84,-3.25,-136.78,-16.38
0.853,0.58,0.08,0.78,-3.22,-138.35,-17.69
0.876,0.65,0.09,0.77,-0.6,-133.34,-11.86
0.894,0.64,0.03,0.77,-4.17,-127.57,-13.94
0.913,0.68,0.05,0.69,-3.37,-130.06,-11.45
0.935,0.67,0.06,0.67,-3.98,-128.55,-12.96
0.954,0.73,0.05,0.63,-1.42,-126.61,-15.21
0.973,0.77,0.09,0.64,-9.5,-134.95,-15.71
0.995,0.79,0.13,0.69,-7.74,-148.61,-17.21
1.013,0.86,0.12,0.64,-11.16,-152.49,-21.71
1.036,0.91,0.13,0.57,-11.15,-157.42,-15.1
1.054,0.86,0.13,0.45,-16.53,-154.02,-9.45
1.073,0.83,0.08,0.38,-21.33,-154.26,-14.85
1.096,0.84,0.04,0.23,-14.52,-149.63,-20.21
1.114,0.88,0.06,0.25,-14.47,-158.92,-32.15
1.134,0.9,0.07,0.17,-3.56,-154.38,-38.73
1.156,0.96,0.07,0.14,5.94,-139.47,-43.97
1.174,0.98,0.14,0.17,7.34,-125.24,-39.88
1.193,1.02,0.14,0.13,3.07,-108.47,-34.06
1.215,1.03,0.18,0.17,-8.44,-96.26,-27.73
1.234,0.99,0.18,0.14,-24.61,-98.82,-22.72
1.256,0.95,0.16,-0.0,-28.17,-95.44,-21.92
1.274,0.95,0.19,0.04,-43.77,-99.91,-26.6
1.294,1.01,0.22,-0.12,-46.32,-92.23,-25.89
1.317,0.99,0.19,-0.2,-38.03,-84.55,-22.2
1.334,0.88,0.19,-0.14,-32.18,-89.48,-26.46
1.353,0.86,0.18,-0.19,-26.06,-97.28,-37.51
1.378,0.93,0.22,-0.21,-33.56,-102.75,-49.89
1.394,0.95,0.22,-0.15,-34.96,-104.26,-50.43
1.416,0.97,0.26,-0.32,-22.53,-111.86,-52.55
1.435,0.98,0.3,-0.27,-14.47,-109.63,-48.95
1.453,1.0,0.34,-0.28,-18.44,-98.69,-39.05
1.476,0.95,0.34,-0.29,-34.95,-92.08,-31.97
1.494,0.8,0.31,-0.46,-28.99,-115.82,-41.07
1.513,0.68,0.3,-0.54,-9.56,-139.05,-68.29
1.535,0.8,0.36,-0.64,6.93,-127.97,-86.58
1.554,0.97,0.4,-0.55,11.45,-82.15,-76.75
1.576,0.99,0.48,-0.48,1.28,-86.14,-55.16
1.594,0.88,0.48,-0.42,-18.7,-99.44,-43.24
1.613,0.74,0.47,-0.49,-17.45,-110.63,-35.22
1.636,0.77,0.51,-0.63,-22.75,-107.57,-33.1
1.654,0.75,0.48,-0.66,-21.28,-87.73,-19.04
1.674,0.62,0.45,-0.68,-22.56,-76.38,-6.9
1.695,0.55,0.44,-0.73,-24.78,-59.37,-8.5
1.714,0.48,0.41,-0.68,-35.5,-65.91,-32.96
1.736,0.64,0.44,-0.74,-28.23,-49.95,-41.48
1.755,0.79,0.49,-0.74,-15.18,-24.87,-31.88
1.774,0.83,0.54,-0.74,-9.79,13.95,-16.17
1.796,0.78,0.56,-0.6,-22.4,27.44,-2.52
1.815,0.66,0.53,-0.49,-41.11,24.34,3.59
1.833,0.68,0.55,-0.63,-40.69,6.61,5.73
1.856,0.72,0.55,-0.79,-34.95,10.47,7.88
1.874,0.71,0.53,-0.77,-22.67,31.91,12.55
1.893,0.67,0.55,-0.68,-19.16,28.21,6.85
1.916,0.6,0.54,-0.67,-12.05,9.74,-3.05
1.935,0.72,0.54,-0.68,-2.89,8.56,-9.88
1.953,0.81,0.59,-0.64,0.08,14.11,-5.8
1.976,0.81,0.59,-0.55,-3.66,21.54,6.61
1.995,0.77,0.56,-0.53,-8.72,15.51,14.95
2.014,0.68,0.54,-0.57,-10.95,9.21,17.73
2.033,0.63,0.52,-0.59,-7.82,4.08,12.29
2.055,0.67,0.51,-0.59,-4.11,5.86,7.66
2.074,0.7,0.5,-0.62,2.38,12.08,6.81
2.093,0.69,0.49,-0.58,7.3,19.21,6.38
2.115,0.6,0.49,-0.53,11.05,5.42,-1.1
2.134,0.66,0.48,-0.53,7.68,1.24,-10.18
2.153,0.73,0.51,-0.52,2.02,0.24,-13.05
2.176,0.78,0.54,-0.58,2.15,6.58,-7.45
2.195,0.77,0.53,-0.54,2.09,17.21,-0.72
2.213,0.74,0.52,-0.56,2.7,18.72,1.51
2.236,0.74,0.52,-0.53,1.71,10.85,-0.52
2.253,0.72,0.52,-0.52,0.05,6.23,0.87
2.272,0.74,0.51,-0.57,2.92,2.14,0.21
2.303,0.75,0.51,-0.53,3.18,3.66,1.37
2.313,0.74,0.51,-0.54,3.74,8.43,5.07
2.333,0.72,0.49,-0.54,6.46,9.69,4.35
2.353,0.74,0.49,-0.48,1.65,9.34,3.82
2.376,0.71,0.5,-0.53,-0.73,4.35,1.74
2.393,0.72,0.5,-0.57,2.4,5.3,0.2
2.416,0.73,0.49,-0.55,3.16,8.05,-0.76
2.435,0.75,0.49,-0.53,3.76,10.29,-0.72
2.454,0.78,0.49,-0.47,-1.24,5.86,-0.21
2.473,0.77,0.49,-0.52,-0.98,7.57,3.47
2.493,0.76,0.5,-0.55,1.18,8.05,1.22
2.516,0.77,0.49,-0.54,2.72,10.15,1.33
2.535,0.76,0.49,-0.55,5.07,6.72,-0.87
2.554,0.77,0.48,-0.5,4.72,2.72,-0.79
2.573,0.78,0.48,-0.54,3.91,0.99,-0.53
2.596,0.77,0.47,-0.54,5.42,-0.95,0.37
2.613,0.83,0.43,-0.51,1.65,7.53,5.16
2.633,0.78,0.5,-0.54,4.67,9.18,7.01
2.656,0.77,0.48,-0.53,-0.43,10.66,5.13
2.673,0.79,0.49,-0.54,4.35,9.97,5.24
2.696,0.78,0.48,-0.55,9.63,13.19,6.4
2.713,0.77,0.47,-0.5,8.72,8.99,6.18
2.736,0.76,0.45,-0.51,11.19,10.03,6.92
2.753,0.71,0.45,-0.45,6.31,3.51,2.2
2.772,0.76,0.44,-0.5,4.58,4.09,2.26
2.793,0.74,0.45,-0.49,3.94,5.82,0.7
2.816,0.77,0.45,-0.54,5.1,10.35,-0.23
2.835,0.78,0.44,-0.53,11.08,19.47,1.8
2.853,0.75,0.45,-0.42,7.01,1.63,-4.15
2.872,0.8,0.44,-0.5,6.73,0.5,-2.9
2.895,0.79,0.42,-0.54,11.97,3.31,0.58
2.914,0.75,0.43,-0.5,12.46,-7.44,-3.77
2.934,0.78,0.43,-0.52,13.27,-3.77,-4.53
2.955,0.79,0.42,-0.56,17.44,5.48,-2.55
2.974,0.78,0.44,-0.44,6.47,-3.62,-7.37
2.993,0.84,0.44,-0.49,-0.03,5.5,-2.58
3.016,0.83,0.45,-0.49,-1.88,4.95,1.83
3.035,0.86,0.44,-0.55,2.82,-4.96,6.95
3.053,0.79,0.42,-0.53,0.64,-1.77,7.63
3.076,0.81,0.44,-0.56,-2.93,-2.44,4.9
3.095,0.73,0.44,-0.53,1.45,-6.67,3.16
3.114,0.79,0.42,-0.6,2.64,-3.19,1.83
3.134,0.72,0.43,-0.47,-2.24,-6.58,-2.27
3.155,0.75,0.42,-0.52,-3.8,-4.56,-5.77
3.174,0.78,0.42,-0.54,-1.15,0.06,-5.94
3.193,0.81,0.42,-0.53,-2.14,-3.62,-5.19
3.215,0.84,0.43,-0.56,1.94,7.04,-0.84
3.234,0.77,0.43,-0.54,2.85,4.03,-1.79
3.254,0.79,0.43,-0.53,0.92,-7.02,-6.46
3.276,0.83,0.44,-0.58,4.96,-1.76,-4.47
3.295,0.81,0.43,-0.53,8.78,0.6,-0.73
3.314,0.82,0.44,-0.53,6.21,-2.55,-0.43
3.333,0.81,0.43,-0.54,6.87,5.88,2.41
3.353,0.76,0.41,-0.49,5.89,3.25,1.8
3.377,0.78,0.41,-0.5,0.29,-0.84,-0.84
3.393,0.8,0.39,-0.54,1.28,6.06,1.11
3.416,0.74,0.41,-0.52,0.29,2.58,-3.51
3.436,0.83,0.43,-0.55,1.95,3.04,-2.2
3.457,0.83,0.42,-0.55,3.68,12.2,2.0
3.473,0.78,0.43,-0.5,-1.01,0.27,-1.77
3.496,0.83,0.42,-0.52,-1.98,-0.27,-0.52
3.514,0.81,0.4,-0.54,0.55,4.14,2.95
3.536,0.77,0.4,-0.52,0.84,-6.5,-0.03
3.555,0.81,0.4,-0.54,0.89,-6.38,-0.75
3.574,0.81,0.42,-0.46,-1.69,-23.1,0.44
3.596,0.85,0.42,-0.52,-6.58,-21.34,5.36
3.615,0.84,0.41,-0.58,-10.5,-6.76,8.53
3.634,0.82,0.41,-0.52,-16.47,-11.34,7.5
3.656,0.79,0.41,-0.53,-22.87,-13.98,5.98
3.675,0.8,0.42,-0.57,-22.06,-9.18,6.58
3.694,0.79,0.41,-0.61,-13.25,-7.27,7.54
3.714,0.75,0.38,-0.6,-5.82,5.85,7.97
3.735,0.74,0.37,-0.63,4.69,11.5,3.89
3.754,0.74,0.38,-0.52,10.69,-1.73,-3.19
3.773,0.77,0.39,-0.51,7.74,-1.11,-4.63
3.795,0.79,0.41,-0.53,5.1,1.02,-6.14
3.814,0.81,0.41,-0.49,-1.04,0.05,-5.62
3.834,0.81,0.4,-0.49,-5.95,-0.02,-2.24
3.856,0.79,0.4,-0.55,-4.55,4.12,-1.65
3.874,0.81,0.39,-0.56,-2.29,-0.09,-1.11
3.893,0.82,0.41,-0.62,0.44,4.72,-2.23
3.916,0.8,0.42,-0.56,3.07,4.67,-1.34
3.935,0.81,0.41,-0.57,3.15,4.29,-0.92
3.954,0.8,0.39,-0.58,6.18,6.95,-0.08
3.976,0.78,0.41,-0.49,-1.36,-9.22,-3.68
3.995,0.82,0.4,-0.56,-3.11,-2.06,-2.47
