timestamp,acce_x,acce_y,acce_z,gyro_x,gyro_y,gyro_z
0.001,-0.05,0.2,-1.01,-2.67,-0.9,-2.9
0.005,-0.05,0.2,-0.99,-3.16,-6.4,-4.73
0.012,-0.08,0.19,-0.99,-0.85,-9.36,-6.21
0.016,-0.05,0.2,-1.0,-0.98,-12.53,-8.73
0.018,-0.02,0.21,-1.01,-1.05,-6.93,-4.87
0.022,-0.05,0.22,-1.01,-4.06,-2.93,-2.46
0.025,-0.09,0.21,-0.99,-5.45,-2.35,-1.6
0.029,-0.11,0.21,-1.0,-4.7,-11.95,-6.58
0.031,-0.05,0.22,-1.03,-2.5,-10.52,-6.53
0.035,-0.03,0.22,-1.06,-1.02,-6.99,-3.53
0.039,-0.11,0.2,-0.98,-2.32,-7.66,-5.31
0.043,-0.1,0.2,-1.01,-1.68,-17.3,-10.5
0.047,-0.06,0.21,-1.02,-2.55,-10.64,-8.18
0.049,-0.05,0.21,-1.02,-2.67,-4.99,-4.69
0.053,-0.11,0.2,-0.99,-2.95,-4.93,-5.33
0.058,-0.09,0.21,-1.02,-1.98,-1.76,-5.59
0.062,-0.12,0.22,-0.99,0.82,-9.27,-7.92
0.066,-0.07,0.21,-1.0,-0.58,0.46,-4.73
0.07,-0.08,0.21,-0.98,-1.68,0.61,-3.66
0.074,-0.06,0.22,-1.02,-1.89,4.66,-1.48
0.081,-0.08,0.21,-1.01,-0.52,1.02,-1.25
0.087,-0.08,0.21,-1.02,0.53,5.62,-0.12
0.092,-0.07,0.22,-1.02,0.93,1.54,-1.31
0.096,-0.08,0.22,-1.04,2.84,3.4,-0.98
0.1,-0.08,0.22,-1.01,4.35,-2.35,-3.11
0.105,-0.05,0.22,-1.03,3.18,2.12,-0.76
0.109,-0.08,0.22,-1.02,3.51,6.52,1.69
0.113,-0.07,0.23,-1.04,5.01,10.67,3.39
0.115,-0.13,0.27,-1.02,3.15,10.2,1.21
0.118,-0.04,0.3,-1.16,3.53,14.9,1.39
0.12,-0.03,0.31,-1.15,6.29,27.74,6.18
0.122,0.07,0.36,-1.33,13.54,57.19,19.28
0.124,0.08,0.36,-1.32,24.53,87.57,35.1
0.126,0.05,0.33,-1.3,38.37,112.35,44.4
0.128,0.14,0.33,-1.28,49.54,139.48,55.86
0.131,0.21,0.31,-1.24,42.46,194.0,76.12
0.134,0.31,0.3,-1.42,31.47,269.1,105.47
0.136,0.33,0.27,-1.51,38.27,353.79,137.71
0.138,0.35,0.19,-1.4,50.96,396.37,134.09
0.14,0.16,0.06,-1.04,48.92,338.92,102.37
0.143,0.56,0.06,-1.08,32.44,324.5,88.96
0.145,0.79,0.05,-1.0,42.38,377.21,103.15
0.147,0.68,-0.02,-0.66,36.67,394.49,114.61
0.149,0.79,-0.1,-0.36,-23.01,345.85,111.56
0.151,0.85,-0.1,-0.57,-19.53,332.11,116.17
0.153,1.12,-0.06,-0.68,-32.85,374.15,131.37
0.155,0.82,-0.1,-0.75,-9.66,448.56,156.89
0.157,0.44,-0.37,-0.36,39.37,437.69,136.34
0.159,0.58,-0.41,0.23,-12.99,310.49,94.24
0.161,0.85,-0.36,-0.2,-34.09,298.41,99.15
0.164,0.82,-0.3,-0.36,8.87,357.85,132.27
0.166,0.26,-0.31,-0.06,70.26,340.93,137.69
0.168,0.32,-0.5,0.12,102.44,292.14,122.5
0.17,0.24,-0.49,0.53,98.31,313.5,110.12
0.172,0.13,-0.43,0.54,88.58,361.97,103.98
0.174,-0.06,-0.42,0.88,86.18,338.66,79.25
0.176,0.06,-0.36,0.83,98.67,341.05,59.54
0.178,0.05,-0.35,0.83,109.59,419.89,54.64
0.18,-0.07,-0.31,1.22,71.08,406.44,68.23
0.182,-0.15,-0.26,1.04,57.47,286.23,72.67
0.185,-0.21,-0.29,1.22,21.54,48.02,71.4
0.187,-0.32,-0.33,1.14,-20.2,-15.79,60.18
0.189,-0.36,-0.36,1.06,-35.44,13.71,25.3
0.191,-0.26,-0.31,0.96,-27.28,57.63,9.28
0.193,-0.19,-0.27,0.77,-4.63,59.71,2.0
0.195,-0.17,-0.3,0.91,9.27,16.6,3.07
0.197,-0.22,-0.32,0.96,13.05,-19.65,-1.39
0.199,-0.25,-0.32,0.98,7.53,-37.69,-8.18
0.201,-0.24,-0.33,0.97,-6.85,-69.77,-21.19
0.203,-0.17,-0.29,0.87,-16.27,-55.3,-29.22
0.205,-0.01,-0.28,0.8,-11.91,-38.89,-27.68
0.207,0.01,-0.3,0.8,8.55,-44.03,-19.71
0.209,0.05,-0.32,0.9,16.96,-22.43,-15.5
0.212,-0.02,-0.33,0.94,17.47,8.56,-11.54
0.214,-0.02,-0.35,1.04,14.23,-8.76,-11.16
0.216,-0.01,-0.34,1.03,11.16,-36.61,-5.36
0.218,-0.04,-0.35,1.0,6.08,-40.03,-3.01
0.22,-0.05,-0.34,0.96,0.93,-17.13,-8.23
0.222,-0.05,-0.33,0.99,0.15,-2.27,-11.76
0.224,-0.03,-0.32,0.98,5.66,3.57,-15.4
0.226,0.05,-0.3,0.99,9.56,3.37,-12.11
0.228,0.02,-0.32,1.04,11.02,-7.01,-6.29
0.23,-0.02,-0.32,1.0,9.18,-17.1,-6.49
0.232,0.0,-0.33,1.01,0.53,-8.73,-7.21
0.236,0.0,-0.32,0.96,-4.18,-1.37,-11.63
0.238,0.05,-0.31,0.95,-3.22,-4.73,-8.41
0.24,0.03,-0.31,0.94,5.57,-1.39,-3.62
0.243,-0.0,-0.31,1.0,13.3,-0.52,-3.02
0.246,-0.04,-0.31,1.01,10.76,0.05,-5.15
0.248,0.0,-0.29,0.99,6.43,-6.21,-6.85
0.25,0.02,-0.28,0.96,3.18,-3.94,-5.83
0.252,0.02,-0.28,0.96,1.01,-10.69,-2.32
0.265,0.01,-0.29,0.92,0.53,-12.6,0.44
0.375,-0.04,-0.3,0.97,-1.34,-11.95,-0.46
0.462,-0.03,-0.29,0.99,-0.87,-5.69,-5.36
0.518,0.01,-0.29,0.99,-2.15,-3.51,-7.22
0.661,0.03,-0.29,0.97,1.07,-3.85,-5.98
0.665,0.05,-0.28,0.97,2.76,-4.29,-3.25
0.667,0.04,-0.28,0.97,4.9,1.88,-2.75
0.669,0.02,-0.28,0.96,3.63,4.98,-1.57
0.671,0.01,-0.29,0.96,1.53,6.5,-1.3
0.673,-0.0,-0.29,0.94,1.92,3.91,-4.24
0.674,0.01,-0.27,0.95,4.89,2.31,-3.37
0.677,-0.0,-0.28,0.98,7.31,9.76,-1.95
0.679,-0.01,-0.28,1.02,6.89,14.73,-2.12
0.705,-0.01,-0.27,1.02,3.27,12.32,-2.67
0.71,-0.03,-0.28,1.02,0.81,5.69,-4.76
0.714,-0.01,-0.27,0.96,-0.29,8.72,-5.79
0.716,-0.01,-0.27,0.96,2.12,6.17,-4.6
0.718,0.01,-0.27,0.98,7.48,0.78,-0.14
0.72,0.0,-0.26,0.96,7.79,-2.08,4.89
0.722,-0.02,-0.28,0.98,4.05,-2.49,4.06
0.724,-0.05,-0.28,0.96,0.73,3.91,0.7
0.726,-0.03,-0.27,0.94,-0.38,2.55,-3.89
0.728,-0.01,-0.27,0.98,1.22,-6.15,-4.05
0.73,-0.03,-0.26,0.97,-0.61,-11.56,-4.76
0.732,-0.01,-0.26,0.95,-2.46,-13.88,-7.45
0.734,0.02,-0.27,0.96,-2.17,-11.83,-9.01
0.736,0.04,-0.27,0.96,-0.44,-0.73,-5.05
0.738,0.01,-0.27,0.96,1.94,1.25,-3.53
0.74,-0.01,-0.27,0.99,2.11,-0.27,-3.68
0.775,0.01,-0.26,1.04,0.11,-1.65,-3.1
0.853,0.0,-0.25,1.01,-2.11,-2.96,-2.75
0.856,0.01,-0.26,1.04,-6.09,-6.81,-3.51
0.859,0.01,-0.26,1.03,-8.49,-8.21,-1.66
0.862,-0.01,-0.28,1.0,-7.05,-14.55,-2.31
0.864,-0.0,-0.29,1.03,-7.36,-22.79,-5.13
0.867,0.04,-0.27,1.03,-8.61,-21.53,-3.57
0.9,0.07,-0.28,1.11,-16.53,-30.27,-1.91
0.902,0.04,-0.28,1.16,-26.53,-57.1,-0.53
0.905,-0.0,-0.3,1.12,-34.46,-102.37,-5.51
0.908,0.07,-0.3,1.07,-34.26,-147.85,-9.8
0.911,0.14,-0.33,1.11,-33.74,-167.45,-11.44
0.913,0.11,-0.34,1.04,-28.02,-174.81,-15.13
0.915,0.12,-0.36,1.07,-26.76,-216.4,-24.85
0.918,0.08,-0.35,0.99,-17.57,-279.56,-34.49
0.92,0.2,-0.38,0.95,-19.08,-315.86,-54.37
0.922,0.41,-0.3,0.77,-20.31,-352.27,-58.58
0.924,0.48,-0.28,0.67,0.14,-379.42,-58.27
0.926,0.53,-0.27,0.59,11.18,-371.44,-61.19
0.927,0.62,-0.25,0.56,-5.42,-361.13,-68.85
0.931,0.94,-0.42,0.11,8.49,-344.26,-64.34
0.933,0.77,-0.3,0.29,-2.64,-347.92,-67.54
0.935,0.8,-0.17,0.06,-16.67,-337.6,-69.25
0.937,0.8,-0.2,-0.08,-2.38,-346.23,-53.34
0.94,0.61,-0.25,-0.1,-21.08,-369.25,-68.24
0.942,0.96,-0.19,-0.46,-50.0,-354.87,-76.2
0.943,0.99,-0.0,-0.47,-75.28,-339.62,-52.95
0.945,0.92,0.03,-0.83,-28.69,-279.85,-26.78
0.948,0.75,-0.05,-0.64,3.3,-238.02,-26.6
0.95,0.73,-0.06,-0.54,11.65,-212.46,-41.45
0.952,0.67,-0.09,-0.38,-13.21,-198.95,-55.1
0.954,0.72,-0.08,-0.63,-41.48,-179.48,-58.56
0.956,0.74,0.0,-0.96,-33.13,-157.44,-58.29
0.958,0.69,-0.03,-0.73,-22.24,-178.82,-63.97
0.96,0.67,0.0,-0.73,-22.26,-192.23,-70.96
0.963,0.86,0.01,-0.86,-13.95,-185.8,-56.99
0.965,0.71,0.06,-1.0,-41.95,-129.34,-23.97
0.967,0.54,0.09,-1.11,-48.23,-113.16,-16.49
0.969,0.3,0.06,-1.0,-29.54,-122.58,-35.08
0.971,0.44,0.11,-1.04,-3.56,-113.08,-43.54
0.973,0.42,0.11,-1.03,12.31,-93.27,-35.45
0.975,0.31,0.07,-0.82,-0.31,-82.03,-31.85
0.977,0.2,0.06,-0.78,-27.65,-70.15,-32.92
0.979,0.26,0.09,-0.93,-35.95,-70.7,-42.46
0.981,0.27,0.11,-0.99,-28.38,-75.3,-45.86
0.983,0.38,0.16,-1.01,-24.44,-90.95,-40.52
0.986,0.34,0.18,-1.05,-18.81,-81.25,-28.4
0.988,0.25,0.2,-0.99,-20.7,-71.27,-22.11
0.989,0.21,0.18,-0.95,-32.31,-65.4,-21.36
0.991,0.24,0.21,-1.0,-35.07,-72.24,-18.9
0.993,0.23,0.25,-1.17,-25.22,-73.33,-11.5
0.995,0.14,0.26,-1.11,-18.24,-84.95,-11.89
1.002,0.1,0.24,-1.11,-6.43,-79.62,-9.45
1.02,0.05,0.23,-1.03,-9.19,-74.56,-5.92
1.052,-0.06,0.17,-1.08,-4.47,-68.0,-9.68
1.061,-0.06,0.18,-1.07,2.5,-73.83,-13.18
1.08,-0.06,0.17,-1.17,28.75,-87.68,-19.77
1.103,0.05,0.23,-1.18,55.45,-90.64,-12.31
1.121,0.07,0.2,-0.79,32.56,-77.21,6.03
1.14,0.02,0.18,-0.93,9.63,-50.15,24.02
1.163,-0.18,0.08,-0.88,-1.62,-42.81,27.39
1.181,-0.36,0.08,-0.92,-10.14,-42.21,10.14
1.2,-0.34,0.09,-0.93,-31.24,-54.02,-16.2
1.222,-0.11,0.2,-1.17,-25.5,-50.66,-19.88
1.24,-0.09,0.21,-1.25,-5.25,-33.16,-0.05
1.259,-0.2,0.19,-1.03,3.3,-31.53,7.18
1.282,-0.26,0.15,-0.91,-0.56,-24.56,8.84
1.301,-0.3,0.13,-0.92,-13.02,-34.6,-0.75
1.323,-0.36,0.12,-1.02,-18.03,-30.96,-8.72
1.341,-0.27,0.19,-1.04,-16.15,-38.73,-22.81
1.36,-0.05,0.29,-1.19,-9.98,-18.79,-8.6
1.382,-0.22,0.21,-1.0,7.16,-21.02,2.06
1.401,-0.22,0.22,-0.95,-0.84,-18.95,5.02
1.42,-0.37,0.14,-0.97,-6.24,-11.83,6.93
1.442,-0.46,0.14,-0.97,-8.34,-16.53,-9.82
1.461,-0.3,0.18,-1.01,-12.53,-11.11,-15.92
1.48,-0.23,0.23,-1.07,-8.9,-18.05,-18.14
1.502,-0.15,0.26,-1.05,-9.8,1.5,-2.95
1.52,-0.25,0.22,-1.02,0.81,-0.29,5.95
1.54,-0.29,0.19,-1.03,0.06,22.26,13.4
1.562,-0.38,0.16,-0.98,6.89,34.02,10.21
1.581,-0.44,0.14,-0.91,0.14,6.15,-7.05
1.6,-0.27,0.17,-1.0,-5.59,13.11,-13.6
1.622,-0.21,0.23,-0.99,-2.5,3.86,-13.68
1.641,-0.19,0.24,-1.02,-5.68,15.04,-5.82
1.659,-0.2,0.23,-1.02,0.66,16.46,-2.85
1.682,-0.23,0.2,-0.99,2.55,13.62,-4.03
1.701,-0.21,0.2,-0.99,2.98,8.6,-4.98
1.72,-0.19,0.21,-0.95,3.33,8.41,-1.74
1.742,-0.15,0.21,-1.01,0.6,14.41,3.74
1.761,-0.25,0.17,-0.96,3.16,14.81,3.8
1.78,-0.26,0.16,-0.94,2.15,6.53,-1.36
1.802,-0.22,0.18,-0.92,-1.04,-2.08,-5.66
1.821,-0.21,0.2,-1.01,-1.04,-1.59,-4.21
1.84,-0.24,0.2,-0.96,0.02,-5.94,-3.54
1.862,-0.2,0.2,-1.0,-2.08,0.67,0.34
1.881,-0.25,0.19,-1.01,1.04,0.08,-0.98
1.899,-0.26,0.19,-0.99,0.26,-4.15,-6.58
1.923,-0.2,0.18,-1.03,1.16,1.39,-4.24
1.941,-0.21,0.17,-1.0,5.91,1.77,-2.47
1.96,-0.22,0.15,-0.95,2.11,1.85,-2.5
1.983,-0.23,0.16,-0.99,1.21,1.85,-4.64
2.001,-0.2,0.16,-0.97,1.8,-2.64,-7.54
2.02,-0.17,0.19,-0.96,-1.37,0.7,-4.34
2.043,-0.18,0.19,-1.01,0.11,4.15,-0.92
2.061,-0.22,0.18,-0.96,2.34,0.21,-2.98
2.08,-0.17,0.19,-1.0,1.5,3.15,-1.54
2.099,-0.18,0.19,-0.97,-0.7,-5.57,-2.61
2.122,-0.21,0.18,-1.0,-0.47,1.94,0.98
2.14,-0.24,0.17,-0.99,2.27,-0.02,0.08
2.159,-0.24,0.15,-0.98,1.74,-0.49,-1.71
2.182,-0.26,0.16,-0.95,1.5,-1.92,-5.3
2.2,-0.18,0.19,-0.97,-0.92,-2.96,-3.71
2.219,-0.18,0.17,-0.97,-4.61,-0.38,0.06
2.242,-0.17,0.17,-0.94,-9.53,0.85,4.61
2.26,-0.17,0.18,-0.94,-13.63,-6.46,8.06
2.279,-0.14,0.21,-1.04,-4.66,-11.01,18.78
2.302,-0.22,0.17,-1.0,-6.53,-4.37,22.63
2.32,-0.36,0.17,-1.01,-5.04,-5.71,12.7
2.34,-0.29,0.17,-1.0,-8.96,-6.75,1.65
2.363,-0.25,0.18,-1.0,-8.37,-2.99,1.57
2.38,-0.29,0.17,-1.04,-4.93,0.84,-1.13
2.399,-0.3,0.18,-1.02,3.65,2.24,-6.58
2.424,-0.23,0.19,-0.96,2.31,0.34,-8.0
2.44,-0.19,0.19,-0.92,-4.63,1.97,-4.27
2.459,-0.2,0.19,-1.01,-6.12,2.52,-1.68
2.482,-0.23,0.18,-1.0,0.58,2.4,-1.3
2.5,-0.22,0.2,-0.93,0.6,-0.32,-2.37
2.52,-0.17,0.21,-0.94,-4.47,0.18,1.8
2.542,-0.22,0.19,-0.98,-6.29,-1.22,2.52
2.561,-0.24,0.18,-1.04,-2.41,-0.38,0.34
2.58,-0.23,0.18,-1.07,4.78,0.82,-1.97
2.602,-0.25,0.19,-0.96,7.1,-1.33,-4.79
2.621,-0.22,0.21,-0.91,1.54,-3.22,-4.2
2.64,-0.18,0.21,-1.0,-2.81,-0.99,-0.4
2.662,-0.17,0.21,-1.05,3.82,-3.63,5.76
2.681,-0.2,0.19,-1.01,9.45,-10.35,8.66
2.7,-0.26,0.17,-0.96,12.61,-11.24,5.48
2.723,-0.26,0.17,-0.93,6.05,-4.96,0.56
2.741,-0.21,0.18,-0.91,-4.61,1.77,0.7
2.76,-0.25,0.19,-1.02,-5.08,1.97,-0.11
2.783,-0.26,0.17,-0.99,-3.01,0.9,-4.52
2.801,-0.23,0.19,-0.97,-1.33,-5.53,-7.21
2.821,-0.18,0.22,-0.99,-4.79,-0.73,-2.64
2.843,-0.18,0.2,-1.0,-1.66,4.75,2.24
2.861,-0.22,0.17,-0.95,-2.38,5.69,2.41
2.879,-0.23,0.17,-0.94,-3.8,0.89,-1.08
2.903,-0.22,0.19,-0.95,-6.89,0.41,-2.02
2.921,-0.2,0.17,-1.02,-3.65,2.66,-0.03
2.94,-0.23,0.17,-1.0,-0.35,5.79,0.44
2.963,-0.24,0.17,-0.96,-1.88,7.62,-0.35
2.982,-0.23,0.18,-0.97,-2.09,-1.95,-5.19
3.0,-0.23,0.19,-0.98,-3.44,-2.32,-5.69
3.023,-0.18,0.22,-1.0,-3.01,-4.55,-3.16
3.041,-0.21,0.21,-1.01,-3.34,2.0,0.46
3.06,-0.23,0.18,-1.02,-0.31,6.08,1.95
3.083,-0.26,0.17,-0.98,-0.49,1.33,-2.49
3.102,-0.24,0.17,-0.99,0.21,0.31,-4.49
3.12,-0.21,0.17,-0.98,0.47,-1.62,-5.88
3.139,-0.19,0.18,-1.0,3.07,0.31,-3.39
3.162,-0.22,0.19,-0.93,-0.93,-1.39,-2.35
3.18,-0.2,0.18,-0.96,-6.72,-1.25,-2.32
3.199,-0.17,0.19,-1.01,-5.65,1.95,1.13
3.222,-0.2,0.2,-0.99,-2.41,0.32,4.89
3.241,-0.18,0.2,-1.02,2.56,-5.18,6.78
3.26,-0.24,0.19,-1.0,4.66,-7.85,5.1
3.282,-0.22,0.2,-1.02,6.08,-6.38,3.82
3.301,-0.23,0.18,-0.97,2.44,-1.6,4.06
3.321,-0.27,0.17,-0.97,1.45,1.02,0.6
3.342,-0.25,0.16,-0.96,0.81,2.53,-4.2
3.361,-0.23,0.17,-0.97,-0.43,0.69,-5.91
3.38,-0.22,0.18,-0.96,-5.65,3.71,-6.27
3.403,-0.22,0.18,-0.99,-5.01,4.44,-5.25
3.421,-0.19,0.19,-0.98,-4.46,2.82,-4.34
3.441,-0.24,0.2,-0.98,-4.87,-1.76,-4.52
3.463,-0.21,0.2,-1.01,-3.28,-2.44,-4.5
3.481,-0.2,0.19,-1.02,-1.11,-1.24,-4.55
3.5,-0.18,0.19,-1.0,-0.72,0.58,-1.42
3.522,-0.21,0.18,-0.97,-2.69,3.07,1.27
3.541,-0.22,0.17,-1.0,-1.6,0.96,-0.69
3.56,-0.23,0.18,-0.98,-2.49,-4.11,-4.17
3.582,-0.17,0.19,-1.03,-2.34,1.88,-1.3
3.601,-0.21,0.21,-1.0,0.06,1.59,1.57
3.621,-0.23,0.2,-0.95,-3.73,-4.0,-1.13
3.642,-0.21,0.19,-1.0,-3.71,-1.88,0.06
3.661,-0.23,0.16,-0.99,-1.71,-2.78,-0.7
3.68,-0.25,0.16,-0.99,0.09,0.58,-4.43
3.703,-0.23,0.19,-0.91,-3.45,-13.76,-11.63
3.722,-0.14,0.22,-1.03,-4.08,-11.45,-4.82
3.741,-0.22,0.2,-1.05,1.82,1.6,1.47
3.763,-0.23,0.18,-1.01,4.37,-0.44,-1.25
3.781,-0.2,0.17,-0.99,5.51,6.43,1.48
3.799,-0.32,0.14,-0.84,0.61,-2.55,-4.32
3.823,-0.21,0.19,-0.97,-6.47,-6.66,-5.19
3.842,-0.2,0.18,-1.07,-1.68,3.27,-0.93
3.86,-0.23,0.18,-0.98,-0.26,-4.37,-3.18
3.883,-0.18,0.19,-1.02,6.78,-3.31,-2.27
3.902,-0.18,0.22,-1.0,8.56,3.34,2.85
3.92,-0.23,0.18,-0.95,5.45,1.05,4.27
3.94,-0.28,0.15,-0.97,3.76,5.36,1.89
3.962,-0.27,0.14,-0.94,-0.05,0.43,-3.1
3.98,-0.24,0.15,-0.95,-3.48,2.81,-5.01
