timestamp,acce_x,acce_y,acce_z,gyro_x,gyro_y,gyro_z
0.008,-0.02,0.23,-0.94,0.49,-9.05,-8.64
0.018,0.04,0.23,-1.05,-1.59,-12.63,-6.52
0.024,0.04,0.23,-1.04,-2.87,-1.94,-1.63
0.03,-0.02,0.22,-1.01,-5.66,1.59,-0.58
0.036,-0.03,0.22,-0.99,-8.14,-2.75,-3.28
0.041,0.01,0.22,-1.09,-4.14,-2.29,-4.17
0.046,0.02,0.22,-1.09,0.02,0.03,-2.47
0.05,0.01,0.22,-1.05,2.81,1.56,-2.05
0.055,0.01,0.21,-1.01,1.57,1.59,-1.71
0.059,0.01,0.2,-1.02,2.44,7.11,-0.24
0.063,0.0,0.2,-1.0,2.06,8.11,0.56
0.067,0.0,0.19,-1.0,2.73,7.56,0.44
0.073,-0.03,0.21,-0.95,-1.83,5.4,-1.74
0.08,0.03,0.2,-1.02,-1.25,3.04,-1.98
0.086,0.02,0.2,-1.01,0.82,6.93,-0.61
0.09,0.03,0.2,-0.99,-0.14,0.63,-1.56
0.094,0.03,0.2,-1.01,0.46,3.37,-0.63
0.099,0.01,0.19,-1.02,3.82,7.5,-1.07
0.102,-0.01,0.2,-0.94,-0.34,-7.66,-5.76
0.104,0.06,0.22,-1.01,-5.56,-3.11,-2.6
0.106,0.01,0.21,-1.05,-3.28,2.64,-0.5
0.108,0.0,0.21,-1.02,-1.86,4.58,-1.22
0.11,-0.02,0.19,-1.01,-2.08,6.84,-2.58
0.113,0.02,0.22,-1.02,-2.0,2.35,-3.4
0.115,0.05,0.21,-1.03,-2.03,8.37,0.15
0.117,0.02,0.2,-1.04,-0.08,10.15,0.41
0.119,-0.0,0.2,-1.02,1.6,7.79,-1.5
0.121,0.03,0.21,-1.08,3.42,11.15,-3.22
0.123,0.06,0.23,-0.96,-1.86,11.5,-0.69
0.125,0.09,0.23,-1.05,-3.66,19.21,4.4
0.127,0.02,0.22,-1.12,3.07,18.78,2.95
0.129,0.06,0.19,-1.06,8.0,15.68,2.7
0.131,0.04,0.18,-1.07,12.96,19.36,2.26
0.133,0.02,0.18,-1.02,15.13,18.21,-0.09
0.136,0.01,0.2,-1.07,15.76,22.81,-4.75
0.137,0.1,0.21,-1.18,21.56,41.44,-3.92
0.139,0.17,0.23,-1.27,35.18,54.21,3.31
0.141,0.19,0.22,-1.19,50.61,79.6,17.01
0.143,0.12,0.2,-0.98,38.96,60.87,17.48
0.145,0.13,0.15,-1.0,33.8,54.76,18.82
0.147,0.22,0.13,-0.82,11.3,28.73,16.18
0.149,0.34,0.14,-0.83,-19.59,7.89,23.05
0.151,0.47,0.14,-1.15,-13.45,28.7,41.15
0.153,0.35,0.13,-1.0,-3.65,43.63,53.62
0.155,0.3,0.14,-1.05,4.96,50.11,57.04
0.157,0.2,0.11,-0.98,7.74,58.78,50.58
0.159,0.25,0.07,-1.08,15.08,53.25,42.21
0.161,0.32,0.04,-1.08,18.44,55.86,38.06
0.163,0.37,0.04,-1.06,23.42,68.9,40.75
0.165,0.34,0.06,-0.96,17.45,74.03,40.53
0.167,0.38,0.07,-1.03,9.89,91.22,41.25
0.169,0.36,0.04,-1.12,23.77,105.74,40.99
0.171,0.37,0.02,-1.08,36.55,111.76,34.89
0.173,0.37,0.01,-1.1,56.43,118.12,26.03
0.175,0.38,-0.0,-1.04,72.52,135.68,19.69
0.177,0.52,-0.01,-0.92,72.15,153.28,15.39
0.179,0.63,0.01,-0.74,57.27,157.92,22.93
0.181,0.74,-0.01,-0.68,21.91,177.45,36.34
0.183,0.75,-0.03,-0.65,-4.63,203.86,44.82
0.185,0.9,-0.01,-0.64,-39.79,256.55,58.46
0.187,0.86,0.02,-0.59,-64.85,285.63,74.35
0.189,0.9,-0.01,-0.61,-69.92,293.13,83.37
0.191,0.99,-0.08,-0.67,-67.65,299.04,94.24
0.193,1.04,-0.11,-0.73,-56.63,304.47,112.24
0.195,0.85,-0.18,-0.54,-44.24,295.11,113.18
0.197,0.85,-0.24,-0.5,-55.69,287.57,112.24
0.199,0.7,-0.32,-0.26,-67.68,250.64,100.84
0.201,0.77,-0.37,-0.27,-60.09,233.21,92.55
0.203,0.76,-0.45,-0.21,-39.92,196.14,89.45
0.205,0.89,-0.47,-0.25,-12.85,197.77,97.68
0.207,0.76,-0.45,-0.16,10.06,186.37,100.43
0.209,0.75,-0.4,0.05,19.27,176.6,91.28
0.211,0.77,-0.29,0.33,13.02,131.18,92.35
0.213,0.88,-0.32,0.29,15.98,126.69,96.93
0.215,0.8,-0.38,0.44,33.21,118.02,101.69
0.217,0.68,-0.46,0.56,23.8,100.35,101.04
0.219,0.52,-0.55,0.47,18.85,71.19,80.9
0.221,0.67,-0.56,0.44,13.39,50.6,67.48
0.223,0.65,-0.57,0.44,19.45,9.31,61.44
0.224,0.61,-0.54,0.41,56.78,-15.13,71.37
0.226,0.43,-0.72,0.53,-6.34,-5.76,71.42
0.228,0.5,-0.72,0.51,12.55,-67.89,47.65
0.23,0.84,-0.62,0.31,19.6,-18.7,26.79
0.232,0.9,-0.57,0.66,-33.5,129.51,41.05
0.234,0.63,-0.72,0.55,-6.44,133.69,28.78
0.236,0.58,-0.7,0.48,13.15,31.19,22.14
0.238,0.54,-0.82,0.31,41.45,-3.91,10.18
0.239,0.56,-0.67,0.38,81.22,-18.47,-16.08
0.241,0.55,-0.58,0.63,108.08,-25.69,-28.79
0.243,0.71,-0.41,0.76,84.75,1.37,-23.85
0.245,0.69,-0.43,0.78,57.01,24.21,-17.19
0.247,0.43,-0.6,0.57,54.85,-0.63,-27.73
0.249,0.19,-0.55,0.71,109.73,-106.43,-48.32
0.251,0.38,-0.6,0.38,121.5,-86.4,-57.56
0.253,0.77,-0.36,0.51,148.61,-120.44,-72.61
0.255,1.03,-0.12,0.7,128.67,-74.29,-69.33
0.257,1.25,-0.38,0.45,144.05,-30.34,-67.25
0.259,1.07,-0.36,0.74,73.79,-53.86,-26.12
0.26,0.62,-0.12,0.93,56.79,-14.96,-15.77
0.262,0.65,-0.37,0.25,100.15,44.82,-63.5
0.264,0.51,-0.18,0.77,118.73,14.64,-87.86
0.266,0.75,-0.01,1.1,57.15,-46.5,-93.45
0.268,0.97,0.1,0.79,16.56,-52.2,-81.13
0.27,0.97,0.19,0.54,10.11,-40.08,-49.18
0.272,0.94,0.06,0.21,31.27,-11.5,-28.55
0.274,0.81,-0.23,0.39,89.77,-4.26,-44.6
0.276,0.98,-0.27,0.56,80.92,3.15,-57.53
0.277,0.96,-0.01,0.77,54.35,7.63,-44.47
0.279,0.89,0.02,0.67,10.81,-1.01,-21.79
0.281,0.88,-0.05,0.6,18.12,-17.54,-22.11
0.283,0.93,0.08,0.73,19.08,-25.02,-9.94
0.285,0.89,0.06,0.78,1.79,-22.12,0.9
0.287,0.83,-0.02,0.65,-0.73,-28.47,3.69
0.289,0.9,-0.07,0.52,-0.5,-23.27,-1.94
0.29,0.88,-0.12,0.39,7.54,-6.03,-8.09
0.292,0.82,-0.04,0.49,16.66,-7.74,-17.01
0.294,0.88,0.05,0.54,12.52,-2.34,-16.67
0.296,0.86,0.06,0.63,8.03,-11.48,-15.74
0.298,0.86,0.04,0.57,5.62,-13.4,-16.23
0.3,0.83,0.07,0.6,4.2,-12.75,-8.55
0.302,0.91,0.11,0.53,5.22,-9.33,-4.23
0.304,0.92,0.01,0.5,15.28,5.31,-7.77
0.305,0.84,0.07,0.64,15.85,12.92,-13.66
0.307,0.93,0.04,0.56,16.18,18.11,-10.87
0.309,0.88,0.08,0.64,9.98,8.38,-4.56
0.311,0.87,0.06,0.53,3.71,9.5,-4.2
0.313,0.88,0.04,0.53,1.79,-0.49,-6.08
0.315,0.87,0.04,0.52,4.56,-0.05,-9.48
0.317,0.88,0.08,0.55,0.75,-3.66,-9.02
0.318,0.92,0.09,0.53,-4.43,1.6,-2.99
0.32,0.87,0.09,0.59,-4.82,-0.05,1.82
0.322,0.87,0.08,0.63,-5.08,-0.93,1.68
0.324,0.85,0.07,0.58,-3.98,-6.08,1.71
0.326,0.77,0.01,0.58,0.64,-8.78,-1.21
0.328,0.87,0.07,0.56,-1.45,-1.63,3.39
0.329,0.88,0.01,0.52,2.96,-0.2,-3.77
0.331,0.88,0.06,0.6,-0.43,-1.25,-6.0
0.333,0.84,0.05,0.57,0.27,0.35,-8.03
0.335,0.87,0.08,0.58,-2.53,0.64,-4.44
0.337,0.87,0.08,0.58,-0.02,-1.08,-0.73
0.339,0.89,0.09,0.54,-1.36,3.19,-1.21
0.341,0.87,0.1,0.53,-2.12,-2.64,0.58
0.342,0.86,0.07,0.55,-2.64,-1.3,-0.43
0.344,0.85,0.04,0.56,-0.67,-2.03,-2.64
0.346,0.85,0.04,0.57,0.41,-4.02,-3.51
0.348,0.9,0.08,0.55,0.26,1.36,-0.21
0.349,0.86,0.08,0.59,-2.98,-1.24,3.01
0.351,0.84,0.05,0.62,-2.15,-1.25,0.53
0.354,0.87,0.05,0.59,-5.86,0.69,0.29
0.356,0.84,0.01,0.56,-5.15,2.89,0.44
0.358,0.86,0.04,0.52,-5.16,4.93,0.56
0.359,0.83,0.05,0.55,-2.09,3.36,1.37
0.361,0.91,0.08,0.56,-1.13,6.5,-2.96
0.363,0.89,0.07,0.6,-9.95,-2.99,1.36
0.365,0.83,0.03,0.54,-10.02,-9.19,-1.54
0.366,0.9,0.05,0.57,-9.19,-4.75,-1.19
0.368,0.87,0.01,0.52,-1.05,6.02,-6.15
0.37,0.84,0.1,0.62,-4.95,-7.59,-2.49
0.372,0.88,0.05,0.56,-3.95,-2.73,-2.76
0.374,0.86,0.06,0.59,-1.83,-2.29,-3.18
0.376,0.88,0.04,0.55,0.26,-1.3,-3.24
0.377,0.86,0.07,0.6,1.02,-1.6,-1.91
0.379,0.88,0.05,0.55,1.22,7.31,-1.91
0.381,0.84,0.04,0.58,1.3,-4.35,-3.31
0.383,0.88,0.06,0.55,-2.32,-0.79,-1.22
0.385,0.86,0.05,0.59,0.14,-3.11,-0.14
0.387,0.87,0.0,0.56,2.18,-4.5,-3.3
0.389,0.9,0.02,0.5,10.46,13.01,-7.04
0.391,0.86,0.03,0.57,9.05,4.23,-1.94
0.392,0.78,0.11,0.64,1.71,-2.37,-0.84
0.394,0.86,0.1,0.6,4.9,1.6,-2.34
0.396,0.85,0.02,0.57,10.18,10.85,-6.47
0.398,0.83,0.01,0.59,14.46,-0.4,-6.4
0.4,0.85,0.12,0.64,5.54,-0.47,-3.69
0.401,0.87,0.06,0.56,4.4,0.31,-4.69
0.403,0.84,0.1,0.56,1.63,-1.45,-4.23
0.405,0.88,0.1,0.54,-2.24,6.95,-3.97
0.407,0.86,0.06,0.55,3.6,1.11,-7.92
0.409,0.84,0.16,0.63,4.2,-2.03,-8.31
0.411,0.84,0.09,0.63,-0.73,-1.91,-5.88
0.412,0.82,0.08,0.58,2.56,-6.09,-8.66
0.414,0.94,0.05,0.55,5.85,2.58,-7.92
0.416,0.83,0.08,0.6,-2.4,-2.55,-4.73
0.418,0.88,0.08,0.57,-0.66,-1.82,-5.27
0.42,0.86,0.1,0.59,-1.24,1.02,-1.56
0.422,0.83,0.08,0.62,-0.34,-1.21,-3.24
0.424,0.84,0.1,0.56,-0.41,-0.53,-2.96
0.425,0.87,0.1,0.57,-0.64,-2.38,-2.52
0.427,0.86,0.09,0.58,-1.83,-0.92,-1.97
0.429,0.85,0.1,0.57,-1.74,-1.77,-1.45
0.431,0.86,0.1,0.57,-2.47,-0.23,-0.98
0.433,0.87,0.1,0.58,-3.02,0.0,0.6
0.435,0.98,0.02,0.4,2.44,25.05,-6.61
0.436,0.87,0.08,0.56,0.84,3.28,-3.19
0.438,0.83,0.07,0.58,-1.4,-0.72,-3.88
0.44,0.88,0.11,0.56,-1.83,3.31,-3.74
0.442,0.86,0.08,0.56,-0.52,7.25,-2.55
0.443,0.85,0.09,0.57,-3.19,1.68,-3.22
0.445,0.83,0.08,0.63,1.5,-3.18,-2.87
0.447,0.83,0.1,0.61,-0.96,-1.19,-3.66
0.449,0.85,0.1,0.59,-0.98,-2.06,-1.4
0.451,0.84,0.1,0.58,-1.73,-0.61,-3.42
0.453,0.85,0.1,0.57,-4.27,-3.07,-2.56
0.455,0.86,0.1,0.58,-7.25,-0.43,-2.4
0.456,0.86,0.1,0.56,-7.89,-0.96,-1.68
0.47,0.9,0.08,0.56,-2.75,-3.01,-2.95
0.472,0.85,0.08,0.6,-2.6,-0.73,-0.69
0.474,0.93,-0.01,0.3,3.07,11.47,-5.68
0.476,0.89,0.09,0.56,-4.14,3.6,-0.26
0.478,0.85,0.08,0.57,-4.29,2.06,-0.09
0.48,0.85,0.07,0.58,-2.72,3.22,-1.79
0.482,0.84,0.09,0.58,-0.84,-0.31,-1.85
0.483,0.85,0.09,0.57,-0.93,0.02,-2.64
0.485,0.84,0.09,0.57,-1.73,-0.72,-2.58
0.487,0.86,0.09,0.58,-1.44,-0.95,-1.92
0.489,0.94,0.06,0.45,5.59,24.34,-8.35
0.491,0.88,0.1,0.61,-2.56,0.67,-0.2
0.493,0.84,0.09,0.58,-1.88,-0.11,-0.55
0.495,0.86,0.1,0.57,-1.74,0.63,0.4
0.497,0.84,0.09,0.57,-1.69,-1.07,-0.66
0.498,0.85,0.08,0.58,-1.74,-1.82,-1.33
0.5,0.85,0.09,0.59,-1.15,-2.93,-1.54
0.502,0.84,0.09,0.59,-0.41,-0.5,-2.15
0.504,0.87,0.1,0.6,0.18,-2.4,-2.21
0.506,0.88,0.08,0.54,2.4,8.73,-4.55
0.508,0.86,0.09,0.58,0.63,6.26,-4.12
0.51,0.86,0.1,0.58,-1.73,2.85,-3.11
0.511,0.84,0.09,0.6,-0.56,-0.85,-2.78
0.513,0.85,0.09,0.59,-0.09,0.66,-2.43
0.515,0.84,0.1,0.61,-0.98,0.21,-2.14
0.517,0.85,0.08,0.58,-0.49,0.43,-2.92
0.519,0.86,0.09,0.58,-0.21,-1.25,-1.76
0.521,0.84,0.09,0.58,0.37,-0.98,-2.29
0.523,0.85,0.11,0.59,-1.36,0.2,-2.2
0.524,0.83,0.09,0.6,-0.38,-0.44,-3.3
0.526,0.86,0.1,0.58,-0.93,-0.81,-2.15
0.528,0.85,0.09,0.59,-1.85,-1.1,-1.47
0.53,0.85,0.09,0.57,-1.98,-1.65,-1.69
0.532,0.8,0.07,0.61,-0.99,-3.54,-2.44
0.533,0.83,0.1,0.61,-1.21,-0.12,-3.16
0.535,0.85,0.1,0.6,-1.71,-1.15,-2.7
0.537,0.85,0.12,0.58,-1.11,-1.62,0.52
0.539,0.79,0.09,0.69,0.06,-6.14,0.29
0.541,0.86,0.1,0.57,-2.0,0.17,-1.36
0.542,0.89,0.11,0.55,-3.71,4.7,-0.15
0.544,0.83,0.08,0.61,-1.4,-1.62,0.17
0.546,0.83,0.1,0.6,-0.7,2.66,-2.23
0.548,0.84,0.11,0.6,-2.81,1.71,-2.32
0.55,0.85,0.11,0.61,-4.73,3.1,-1.1
0.551,0.85,0.08,0.59,-3.6,0.78,-0.96
0.553,0.85,0.09,0.58,-1.34,-1.04,-1.45
0.555,0.83,0.09,0.59,-0.64,-0.72,-2.0
0.557,0.83,0.1,0.59,-0.61,-1.34,-2.76
0.559,0.86,0.1,0.57,-0.87,-1.48,-2.12
0.56,0.85,0.09,0.59,-1.57,-1.36,-0.52
0.562,0.84,0.1,0.62,-2.92,0.06,-1.74
0.564,0.84,0.09,0.59,-2.53,-1.76,-1.07
0.566,0.85,0.09,0.58,-2.89,0.58,-0.55
0.567,0.85,0.09,0.57,-3.5,0.99,-0.05
0.569,0.79,0.22,0.69,-5.95,0.49,1.44
0.571,0.87,0.11,0.63,-6.93,0.99,1.73
0.573,0.79,0.11,0.66,-3.98,-5.66,1.24
0.575,0.86,0.08,0.57,-5.44,1.59,2.92
0.577,0.86,0.08,0.61,-6.11,-0.29,3.74
0.579,0.84,0.07,0.59,-5.89,1.02,2.41
0.58,0.84,0.07,0.6,-4.98,0.38,0.58
0.582,0.74,0.07,0.67,-1.8,-6.5,0.89
0.584,0.84,0.07,0.6,-2.43,-0.18,-1.18
0.586,0.84,0.07,0.59,-1.83,-2.5,-2.98
0.588,0.85,0.07,0.58,-0.63,-0.52,-2.75
0.59,0.87,0.07,0.56,0.41,6.17,-4.6
0.591,0.86,0.09,0.63,-3.4,-0.64,-0.41
0.593,0.83,0.07,0.63,-1.47,-2.49,-0.55
0.595,0.84,0.08,0.56,0.06,-1.56,-2.37
0.597,0.86,0.09,0.58,-2.24,-1.86,-0.61
0.599,0.84,0.07,0.6,-1.94,-3.77,-0.38
0.601,0.85,0.06,0.58,-0.72,-2.05,-1.45
0.603,0.85,0.09,0.61,-1.97,-2.2,-1.13
0.605,0.83,0.08,0.63,-1.95,-2.5,0.41
0.606,0.84,0.06,0.59,-0.67,-3.16,-1.25
0.608,0.85,0.08,0.57,-1.05,-5.18,-1.22
0.61,0.89,0.04,0.55,-0.26,2.08,-1.19
0.612,0.83,0.07,0.59,-3.02,-1.02,-2.0
0.614,0.76,0.16,0.67,-5.36,6.46,-1.13
0.616,0.87,0.07,0.6,-1.82,2.79,-1.83
0.617,0.84,0.07,0.59,0.38,-2.29,-2.2
0.619,0.83,0.08,0.6,-0.14,-2.0,-1.62
0.621,0.86,0.07,0.58,-1.56,-1.25,-2.18
0.623,0.85,0.08,0.59,-0.55,-3.47,-2.08
0.625,0.85,0.09,0.52,-2.02,3.77,-2.4
0.627,0.84,0.06,0.6,4.53,6.6,-6.2
0.629,0.85,0.1,0.61,1.22,-0.4,-5.3
0.631,0.85,0.08,0.58,1.31,-0.49,-4.53
0.633,0.83,0.08,0.61,5.08,-4.63,-5.66
0.635,0.83,0.13,0.63,-0.96,-2.27,-2.69
0.637,0.83,0.09,0.59,0.72,-1.94,-3.33
0.638,0.84,0.09,0.57,-0.26,-1.97,-3.37
0.64,0.87,0.13,0.52,-0.26,5.63,-2.85
0.642,0.77,0.09,0.65,4.61,0.84,-5.88
0.644,0.85,0.1,0.61,-2.14,1.07,-1.69
0.646,0.84,0.09,0.61,-0.93,-1.27,-3.18
0.647,0.85,0.09,0.59,-1.56,-0.08,-2.27
0.649,0.83,0.09,0.58,-1.36,-2.73,-3.27
0.651,0.84,0.09,0.59,-1.74,-0.53,-1.63
0.653,0.84,0.09,0.59,-0.76,-0.67,-3.34
0.655,0.86,0.09,0.59,-1.16,-0.21,-3.57
0.657,0.85,0.09,0.61,0.15,-1.82,-3.13
0.658,0.85,0.1,0.58,-1.54,-0.14,-2.7
0.66,0.85,0.09,0.58,-1.33,-1.6,-2.11
0.662,0.85,0.1,0.59,-1.53,-1.04,-1.71
0.664,0.84,0.09,0.59,-0.61,-1.77,-1.71
0.666,0.85,0.1,0.6,-1.51,-0.84,-2.06
0.668,0.84,0.08,0.58,-0.96,-0.73,-2.12
0.67,0.86,0.1,0.58,-1.71,0.43,-3.47
0.671,0.85,0.1,0.6,-1.97,0.12,-2.12
0.673,0.84,0.1,0.6,-1.76,0.24,-2.44
0.675,0.85,0.09,0.59,-1.4,-0.43,-2.38
0.677,0.84,0.09,0.57,-1.33,0.31,-2.67
0.679,0.85,0.09,0.59,-1.37,0.11,-2.47
0.68,0.85,0.1,0.59,-1.39,-1.13,-2.26
0.682,0.85,0.1,0.6,-1.5,-1.98,-1.45
0.684,0.84,0.09,0.58,-2.31,-1.74,-1.56
0.686,0.85,0.09,0.58,-2.03,-0.37,-1.91
0.688,0.85,0.09,0.59,-1.74,0.93,-1.95
0.69,0.85,0.09,0.6,-1.82,0.7,-2.52
0.691,0.84,0.1,0.6,-1.6,0.9,-2.87
0.693,0.84,0.09,0.59,-1.47,0.73,-3.08
0.695,0.85,0.1,0.6,-1.25,-0.26,-2.35
0.697,0.84,0.1,0.58,-1.69,-0.41,-1.85
0.699,0.84,0.1,0.6,-2.64,-0.58,-1.53
0.701,0.84,0.09,0.58,-2.15,-1.69,-1.73
0.703,0.84,0.09,0.59,-1.97,-1.62,-1.74
0.705,0.85,0.09,0.59,-0.84,-0.66,-2.63
0.707,0.84,0.11,0.61,-1.05,0.0,-1.88
0.709,0.85,0.1,0.58,-1.8,-0.66,-2.35
0.711,0.85,0.09,0.6,-2.82,-1.33,-1.8
0.713,0.85,0.08,0.6,-2.34,-0.55,-2.02
0.714,0.85,0.1,0.6,-0.85,-0.35,-2.2
0.716,0.85,0.1,0.58,-1.02,-0.64,-1.85
0.718,0.84,0.1,0.58,-1.73,-0.03,-3.08
0.72,0.85,0.1,0.59,-1.8,-0.38,-1.57
0.722,0.85,0.1,0.6,-1.18,-1.04,-1.68
0.724,0.85,0.1,0.59,-0.9,-2.05,-1.31
0.726,0.83,0.11,0.61,-2.14,-1.02,-2.26
0.728,0.9,0.12,0.76,-14.56,-14.37,1.3
0.73,0.83,0.16,0.69,-50.49,-36.98,17.28
0.732,0.7,0.01,0.54,-27.65,-32.99,17.77
0.734,0.87,0.04,0.46,-13.76,-8.56,0.73
0.736,0.84,0.06,0.49,-1.45,-1.13,-3.19
0.738,0.86,0.08,0.59,0.18,2.0,-3.71
0.74,0.89,0.07,0.57,-1.94,9.54,-4.21
0.742,0.86,0.04,0.54,1.63,13.31,-2.93
0.744,0.82,0.11,0.59,4.41,11.89,-1.1
0.746,0.76,0.17,0.72,0.87,-5.62,1.74
0.748,0.87,0.09,0.6,-0.82,3.56,-2.23
0.75,0.79,0.06,0.66,2.0,-7.56,-0.58
0.751,0.85,0.06,0.58,1.34,2.47,-3.77
0.754,0.83,0.09,0.65,1.34,-2.05,-2.15
0.756,0.85,0.08,0.6,-0.69,1.94,-2.75
0.758,0.84,0.08,0.59,-0.52,0.6,-2.41
0.76,0.85,0.08,0.6,-0.08,0.23,-2.61
0.762,0.83,0.09,0.6,1.62,-1.25,-1.01
0.764,0.84,0.07,0.6,0.75,1.39,-1.73
0.766,0.8,0.03,0.64,2.98,-12.92,-0.37
0.768,0.82,0.08,0.62,-0.31,-2.67,-1.51
0.77,0.84,0.08,0.6,0.08,-2.73,-2.87
0.772,0.85,0.08,0.57,-2.17,0.76,-1.65
0.774,0.87,0.05,0.55,2.02,4.29,-3.3
0.776,0.75,0.21,0.65,-1.53,9.85,-4.37
0.778,0.89,0.09,0.59,-1.45,2.53,-2.21
0.78,0.82,0.08,0.61,0.24,-0.79,-3.13
0.781,0.87,0.09,0.59,0.02,-0.75,-2.31
0.783,0.84,0.07,0.58,1.53,-0.75,-2.76
0.785,0.81,0.05,0.62,2.98,-10.75,-1.68
0.787,0.83,0.09,0.61,-0.61,-0.56,-2.24
0.789,0.86,0.1,0.6,-1.37,-0.49,-1.69
0.791,0.83,0.07,0.59,-2.03,-0.93,-1.15
0.793,0.85,0.09,0.58,-1.04,0.31,-1.74
0.795,0.83,0.09,0.59,-1.79,-0.05,-1.66
0.796,0.84,0.07,0.58,-0.79,-3.79,-1.08
0.798,0.84,0.08,0.59,-2.66,0.31,-1.86
0.8,0.85,0.08,0.6,-2.2,0.5,-1.65
0.802,0.84,0.08,0.58,-1.66,0.41,-2.38
0.804,0.84,0.09,0.59,-0.75,0.34,-2.46
0.806,0.84,0.1,0.6,-1.76,-0.2,-2.24
0.807,0.84,0.09,0.61,-2.47,-0.87,-0.52
0.809,0.85,0.08,0.58,-2.78,-0.93,-1.13
0.811,0.84,0.08,0.58,-2.14,-0.53,-0.53
0.813,0.85,0.08,0.6,-2.03,0.17,-2.03
0.815,0.85,0.07,0.56,-0.17,-1.85,-1.6
0.817,0.85,0.09,0.59,-0.35,2.15,-3.24
0.818,0.84,0.09,0.58,-0.08,0.06,-2.32
0.82,0.85,0.09,0.59,-1.37,-1.01,-2.32
0.822,0.84,0.09,0.6,-1.8,-0.92,-1.77
0.824,0.84,0.09,0.6,-1.56,-1.47,-2.61
0.826,0.84,0.08,0.6,-0.82,-1.42,-2.09
0.828,0.85,0.1,0.6,-2.47,-0.08,-1.66
0.829,0.83,0.07,0.59,-1.8,0.27,-2.09
0.831,0.85,0.09,0.58,-2.09,-0.37,-1.27
0.833,0.84,0.08,0.58,-2.02,-1.22,-1.53
0.835,0.85,0.08,0.59,-1.04,-2.26,-1.57
0.837,0.84,0.08,0.61,-0.96,-1.56,-2.5
0.839,0.84,0.08,0.59,-1.19,-1.45,-2.43
0.841,0.85,0.09,0.59,-0.72,-1.45,-2.81
0.842,0.84,0.09,0.59,0.2,-0.92,-2.82
0.844,0.84,0.09,0.58,-1.16,-1.47,-1.91
0.846,0.85,0.1,0.61,-2.31,-0.6,-0.92
0.848,0.84,0.08,0.59,-1.22,-0.29,-1.8
0.856,0.85,0.09,0.59,-0.82,-0.06,-2.21
0.86,0.84,0.09,0.59,-1.62,-0.06,-1.39
0.862,0.86,0.09,0.59,-1.42,0.21,-2.14
0.864,0.84,0.09,0.59,-1.39,-0.24,-2.31
0.866,0.85,0.08,0.6,-2.11,-0.35,-1.68
0.867,0.84,0.09,0.6,-3.05,0.53,-1.31
0.87,0.84,0.08,0.6,-2.26,0.26,-1.51
0.871,0.85,0.08,0.6,-1.74,-0.76,-1.94
0.873,0.84,0.09,0.59,-1.04,-1.34,-2.56
0.875,0.85,0.09,0.58,-1.18,-0.6,-2.49
0.877,0.87,0.1,0.56,0.5,-1.59,-2.31
0.879,0.85,0.1,0.61,4.75,1.5,-2.49
0.881,0.84,0.09,0.61,-2.44,-0.31,-0.96
0.882,0.84,0.08,0.58,-2.99,0.89,-1.74
0.884,0.84,0.09,0.59,-1.91,2.0,-2.05
0.886,0.84,0.09,0.61,-1.02,0.06,-2.64
0.888,0.84,0.09,0.59,-1.24,-0.08,-1.66
0.89,0.83,0.08,0.6,-1.88,-1.44,-1.69
0.892,0.84,0.09,0.59,-1.08,-1.19,-2.41
0.893,0.84,0.08,0.59,-1.16,-1.98,-1.89
0.895,0.83,0.07,0.59,-0.21,-2.66,-2.4
0.897,0.85,0.09,0.6,-0.72,-2.06,-2.26
0.899,0.92,0.09,0.57,-1.47,2.99,-3.18
0.9,0.86,0.1,0.61,-1.27,-1.54,-1.94
0.902,0.84,0.09,0.59,-1.21,-1.51,-1.6
0.905,0.84,0.08,0.59,-1.89,-1.01,-2.26
0.906,0.85,0.09,0.6,-1.48,-0.92,-1.39
0.908,0.84,0.09,0.61,-0.78,-1.6,-2.47
0.91,0.85,0.09,0.59,-0.32,-2.75,-0.81
0.912,0.84,0.08,0.59,0.56,-1.74,-3.07
0.914,0.87,0.1,0.6,-1.57,-0.4,-1.63
0.915,0.84,0.08,0.57,-1.56,-0.53,-1.13
0.917,0.85,0.09,0.58,-0.89,-0.9,-3.05
0.919,0.85,0.1,0.59,-1.82,-0.84,-1.37
0.921,0.83,0.08,0.61,-0.81,-2.5,-2.12
0.923,0.85,0.1,0.58,-0.58,-1.73,-2.58
0.925,0.85,0.09,0.58,-2.03,-1.22,-0.9
0.927,0.83,0.08,0.59,-1.34,-0.7,-2.03
0.929,0.84,0.09,0.59,0.29,-1.57,-2.72
0.93,0.85,0.09,0.57,-1.22,-0.2,-2.72
0.932,0.85,0.1,0.58,-1.4,-0.96,-2.0
0.934,0.81,0.07,0.62,0.52,-8.31,-1.42
0.936,0.86,0.09,0.59,-0.64,-0.63,-2.89
0.938,0.86,0.1,0.59,-0.53,-1.6,-2.02
0.94,0.84,0.08,0.58,-0.34,-0.95,-2.58
0.941,0.85,0.1,0.59,-0.95,-2.14,-1.71
0.943,0.82,0.07,0.68,1.3,-5.51,-0.9
0.945,0.8,0.19,0.66,-4.09,-1.22,-0.15
0.947,0.85,0.11,0.61,-2.03,1.11,-1.4
0.948,0.83,0.08,0.58,0.05,0.21,-2.87
0.95,0.86,0.11,0.57,-1.42,1.79,-3.22
0.953,0.85,0.1,0.6,-1.8,0.08,-1.34
0.955,0.84,0.09,0.59,-1.24,-0.73,-1.98
0.957,0.84,0.1,0.58,-1.21,-0.64,-2.37
0.959,0.85,0.1,0.6,-0.9,-2.84,-0.37
0.961,0.83,0.09,0.58,-0.23,-2.87,-2.55
0.962,0.93,0.12,0.57,-3.1,4.05,-1.86
0.964,0.82,0.09,0.6,-1.08,-0.85,-1.45
0.966,0.84,0.09,0.58,-0.61,-0.11,-3.08
0.969,0.85,0.1,0.58,-2.0,-2.27,-1.54
0.972,0.84,0.08,0.59,-1.68,-2.84,-1.57
0.974,0.85,0.1,0.61,-0.31,-0.81,-2.38
0.976,0.85,0.11,0.6,-0.98,-0.64,-1.37
0.978,0.85,0.09,0.59,-0.02,-1.39,-2.49
0.981,0.86,0.1,0.58,-1.65,-0.96,-2.44
0.983,0.84,0.09,0.6,-1.22,-2.05,-1.16
0.985,0.84,0.1,0.59,-1.65,-0.5,-2.73
0.987,0.85,0.1,0.58,-1.24,-0.66,-1.83
0.989,0.83,0.09,0.58,0.09,-2.17,-2.92
0.991,0.88,0.08,0.59,-1.48,-0.41,-2.7
0.993,0.82,0.08,0.61,-0.56,-2.61,-1.71
0.995,0.85,0.11,0.58,-0.47,-1.56,-3.07
0.997,0.85,0.1,0.58,-1.82,0.08,-1.65
0.998,0.84,0.1,0.59,-1.3,-1.39,-1.88
1.001,0.83,0.15,0.61,-1.92,-1.79,0.15
1.003,0.85,0.12,0.61,-2.52,-1.57,-1.44
1.005,0.85,0.09,0.58,-0.76,-1.56,-2.47
1.007,0.86,0.1,0.6,-0.81,-1.02,-1.88
1.009,0.84,0.1,0.6,-0.23,-1.69,-2.02
1.011,0.84,0.1,0.58,0.78,-3.5,-1.89
1.013,0.86,0.09,0.56,-0.55,-1.59,-2.29
1.016,0.85,0.1,0.58,-0.9,-1.5,-2.02
1.018,0.84,0.11,0.6,0.79,-4.64,-1.31
1.02,0.86,0.1,0.57,-1.34,-0.23,-3.89
1.022,0.84,0.11,0.6,-0.56,-0.2,-2.17
1.024,0.84,0.11,0.59,0.15,0.67,-3.25
1.026,0.85,0.11,0.57,-0.66,-1.51,-2.17
1.028,0.84,0.1,0.58,-0.52,-2.72,-1.36
1.029,0.89,-0.0,0.58,5.62,-7.4,-4.14
1.032,0.85,0.12,0.59,-1.97,0.99,-1.68
1.034,0.83,0.1,0.59,-0.87,-0.6,-1.77
1.036,0.85,0.11,0.57,-1.42,0.44,-2.81
1.038,0.85,0.11,0.58,-1.59,-1.92,-1.05
1.04,0.84,0.1,0.58,-2.24,-1.76,-1.73
1.042,0.85,0.11,0.59,-2.05,-0.72,-1.37
1.044,0.84,0.1,0.59,-1.28,-0.47,-2.53
1.046,0.86,0.11,0.58,-0.31,-1.3,-2.37
1.048,0.85,0.11,0.58,0.93,-2.98,-1.88
1.05,0.86,0.1,0.58,0.6,-0.84,-2.64
1.052,0.85,0.11,0.59,-1.51,-1.27,-1.01
1.054,0.87,0.03,0.6,1.79,-6.29,-1.71
1.056,0.85,0.11,0.58,-1.28,-1.1,-1.66
1.058,0.86,0.11,0.58,-0.43,-1.82,-1.62
1.06,0.84,0.08,0.59,-0.82,-6.17,-1.63
1.062,0.85,0.11,0.59,-1.21,-0.96,-1.88
1.065,0.84,0.1,0.58,-0.18,-1.95,-2.75
1.067,0.86,0.11,0.58,-0.4,-1.82,-2.63
1.069,0.85,0.11,0.58,-2.43,-0.58,-1.48
1.071,0.86,0.11,0.57,-2.06,0.7,-2.09
1.073,0.85,0.11,0.58,-2.26,-0.23,-1.19
1.075,0.85,0.09,0.57,-1.36,-1.27,-1.56
1.077,0.86,0.1,0.58,-0.23,-1.69,-2.2
1.079,0.85,0.11,0.58,4.06,0.6,-2.53
1.08,0.83,0.12,0.62,-1.76,-0.63,-1.83
1.082,0.85,0.11,0.58,-1.07,-2.2,-2.03
1.084,0.86,0.11,0.57,-2.46,0.63,-1.92
1.086,0.85,0.1,0.57,2.29,0.17,-2.2
1.088,0.84,0.11,0.59,-2.38,0.61,-2.6
1.09,0.85,0.11,0.58,-1.83,-0.02,-2.21
1.092,0.85,0.1,0.58,-1.02,-0.66,-2.32
1.093,0.85,0.1,0.58,-1.22,-0.79,-1.42
1.095,0.83,0.09,0.56,0.11,5.02,-4.53
1.097,0.78,0.23,0.65,-3.8,2.02,0.29
1.099,0.84,0.11,0.6,-1.37,-0.56,-2.2
1.101,0.87,0.11,0.58,-1.5,-0.55,-2.23
1.103,0.84,0.11,0.57,-1.92,-0.37,-2.23
1.105,0.86,0.11,0.59,-1.88,-0.05,-2.03
1.107,0.85,0.11,0.59,-1.88,-0.61,-1.66
1.109,0.85,0.11,0.58,-2.09,0.03,-1.6
1.11,0.86,0.1,0.57,-1.62,-0.4,-1.54
1.112,0.85,0.1,0.57,-1.51,-0.15,-2.17
1.114,0.85,0.12,0.59,-2.43,1.73,-1.91
1.116,0.83,0.07,0.62,0.06,-5.11,-1.27
1.118,0.89,0.07,0.51,3.04,10.35,-5.88
1.12,0.85,0.1,0.59,-0.41,-1.54,-1.95
1.122,0.85,0.11,0.58,-1.25,-0.73,-2.2
1.124,0.85,0.11,0.59,-1.15,-1.54,-2.02
1.126,0.84,0.11,0.58,-1.16,-0.6,-2.7
1.127,0.86,0.12,0.59,-1.1,-1.63,-2.41
1.129,0.84,0.11,0.58,0.06,-2.63,-2.38
1.131,0.87,0.11,0.58,-1.45,-0.24,-1.73
1.133,0.84,0.12,0.58,-1.21,-1.59,-1.95
1.135,0.85,0.1,0.58,0.96,-1.04,-2.44
1.137,0.86,0.11,0.6,-1.01,-1.39,-1.92
1.139,0.86,0.1,0.54,-0.2,0.64,-3.44
1.14,0.87,0.11,0.58,-0.03,-0.93,-3.33
1.142,0.86,0.12,0.58,-0.4,-1.42,-2.85
1.144,0.85,0.12,0.58,-1.36,-1.24,-1.74
1.146,0.85,0.12,0.57,-1.04,-2.7,-1.62
1.147,0.69,0.3,0.75,-4.15,-8.02,3.56
1.149,0.85,0.12,0.59,-1.18,-0.6,-1.76
1.151,0.85,0.11,0.59,-1.68,1.56,-3.07
1.153,0.85,0.11,0.58,-1.15,0.61,-2.49
1.155,0.83,0.11,0.59,-0.96,-0.64,-2.73
1.157,0.85,0.12,0.58,-1.27,0.37,-2.89
1.159,0.84,0.11,0.59,-0.84,-1.01,-1.97
1.16,0.86,0.11,0.57,-1.31,-0.87,-2.79
1.162,0.85,0.12,0.57,-0.89,-1.62,-1.62
1.164,0.85,0.12,0.58,-0.47,-0.24,-2.78
1.166,0.72,0.28,0.73,-5.19,-6.03,2.78
1.168,0.85,0.12,0.58,-0.93,-1.62,-1.83
1.169,0.87,0.11,0.56,-0.55,1.01,-2.67
1.171,0.86,0.11,0.59,-0.72,-1.11,-2.03
1.173,0.85,0.12,0.57,-1.21,-0.24,-2.81
1.175,0.85,0.12,0.57,-1.79,0.08,-2.55
1.177,0.85,0.12,0.57,-1.11,-0.85,-2.17
1.179,0.92,0.01,0.45,8.75,12.81,-9.8
1.181,0.85,0.12,0.6,-1.51,-1.07,-1.11
1.183,0.84,0.11,0.57,-1.1,-1.13,-2.17
1.184,0.86,0.11,0.58,-1.36,-0.32,-1.82
1.186,0.85,0.13,0.58,-1.36,-0.87,-1.86
1.188,0.84,0.11,0.59,-1.51,0.29,-2.31
1.19,0.86,0.12,0.58,-1.3,-0.17,-2.09
1.192,0.86,0.12,0.57,-2.69,0.02,-1.65
1.194,0.85,0.12,0.58,-1.89,-0.87,-1.82
1.195,0.85,0.1,0.57,-1.89,-3.19,-1.44
1.197,0.87,0.08,0.6,0.15,-0.41,-3.1
1.199,0.85,0.12,0.58,-0.75,-0.93,-1.22
1.201,0.85,0.11,0.56,-1.11,-0.73,-2.78
1.203,0.86,0.12,0.58,-0.87,-0.73,-1.92
1.205,0.84,0.12,0.57,-0.61,-1.8,-1.69
1.207,0.85,0.11,0.59,-1.39,0.24,-2.41
1.208,0.86,0.12,0.58,-0.92,-0.93,-2.29
1.21,0.85,0.12,0.57,-0.87,-2.0,-1.56
1.212,0.95,0.02,0.43,7.39,22.15,-12.26
1.214,0.86,0.11,0.58,-0.37,-1.13,-2.7
1.216,0.83,0.13,0.63,1.85,-0.81,-4.21
1.217,0.85,0.12,0.58,1.21,-2.72,-2.89
1.219,0.86,0.13,0.57,-1.27,1.16,-2.55
1.221,0.84,0.12,0.6,-0.15,0.08,-3.13
1.223,0.85,0.13,0.59,-0.05,-0.09,-3.11
1.225,0.85,0.13,0.57,-0.15,-0.85,-2.58
1.226,0.84,0.13,0.57,-0.4,-1.91,-1.92
1.228,0.85,0.08,0.6,2.5,-7.89,-0.84
1.23,0.84,0.15,0.61,-1.01,-1.79,-1.79
1.232,0.85,0.12,0.59,0.24,-2.08,-2.96
1.234,0.84,0.12,0.58,0.99,-1.6,-2.96
1.236,0.85,0.13,0.58,-0.08,-0.64,-3.48
1.238,0.84,0.13,0.56,0.02,-2.82,-2.56
1.239,0.9,0.14,0.52,-1.91,11.33,-5.44
1.241,0.84,0.13,0.59,-0.98,-0.67,-2.7
1.243,0.85,0.13,0.56,0.29,-0.35,-3.08
1.245,0.85,0.13,0.58,-0.47,-0.98,-2.27
1.246,0.85,0.13,0.58,-0.66,-0.87,-2.67
1.248,0.86,0.13,0.57,-0.7,-1.62,-1.6
1.25,0.81,0.13,0.61,2.18,-9.16,-1.44
1.252,0.86,0.14,0.57,-1.51,1.34,-2.34
1.254,0.85,0.13,0.59,-0.34,-2.0,-2.46
1.256,0.85,0.13,0.58,-0.27,-1.48,-3.22
1.258,0.85,0.14,0.58,-1.21,-0.98,-2.82
1.259,0.85,0.14,0.57,-1.51,0.03,-2.55
1.261,0.85,0.14,0.58,-1.63,-0.43,-2.23
1.263,0.85,0.13,0.57,-0.93,-1.16,-2.24
1.265,0.85,0.14,0.57,-0.6,-0.9,-2.24
1.267,0.85,0.13,0.6,-0.63,-1.63,-1.86
1.269,0.84,0.13,0.58,-0.89,-0.96,-3.11
1.27,0.86,0.14,0.58,0.02,-0.5,-2.52
1.272,0.89,0.13,0.55,-0.76,1.5,-2.61
1.274,0.86,0.14,0.58,-1.63,-1.24,-1.83
1.276,0.85,0.13,0.57,-1.63,-1.11,-1.62
1.278,0.72,0.21,0.75,-1.88,-7.18,-0.06
1.28,0.85,0.13,0.58,-1.79,-1.1,-1.56
1.282,0.85,0.14,0.57,-1.6,-0.06,-2.03
1.283,0.86,0.12,0.56,-2.23,2.49,-1.97
1.285,0.85,0.14,0.57,-1.6,1.8,-3.11
1.287,0.86,0.14,0.58,-1.02,0.76,-1.86
1.289,0.85,0.14,0.57,-0.82,-0.24,-2.15
1.291,0.86,0.14,0.56,-1.44,-1.11,-1.13
1.293,0.85,0.11,0.53,10.92,12.35,-7.04
1.294,0.87,0.13,0.56,-0.03,5.91,-3.4
1.296,0.85,0.14,0.58,-1.16,-1.69,-1.82
1.298,0.86,0.13,0.58,-1.04,-1.56,-1.47
1.3,0.84,0.14,0.56,-1.1,-1.31,-2.52
1.302,0.85,0.14,0.57,-1.54,-1.63,-1.4
1.304,0.83,0.15,0.6,-2.46,-1.48,-2.21
1.306,0.88,0.14,0.56,-2.06,0.55,-1.71
1.307,0.85,0.13,0.58,-1.19,-1.08,-2.26
1.309,0.85,0.14,0.58,-0.78,-1.24,-1.66
1.311,0.85,0.14,0.57,-1.53,-1.6,-1.37
1.313,0.86,0.13,0.58,-0.7,-2.26,-0.63
1.315,0.88,0.15,0.56,-1.83,-1.77,-0.32
1.317,0.85,0.14,0.56,-2.79,0.21,-1.21
1.318,0.85,0.13,0.58,-2.31,0.5,-1.91
1.32,0.84,0.14,0.59,-1.83,0.35,-2.96
1.322,0.85,0.13,0.57,-0.61,-1.1,-3.01
1.324,0.87,0.14,0.56,-1.82,0.46,-2.63
1.326,0.86,0.13,0.56,-0.44,-3.15,-1.08
1.328,0.89,0.16,0.57,-2.21,-2.64,0.47
1.329,0.84,0.13,0.58,-1.85,-0.29,-2.31
1.331,0.85,0.14,0.57,1.27,2.73,-3.31
1.333,0.85,0.14,0.58,-2.17,-0.67,-2.14
1.335,0.81,0.18,0.62,-2.15,-3.25,-0.75
1.337,0.84,0.14,0.59,-1.04,-1.39,-1.92
1.339,0.85,0.15,0.57,-1.63,-0.02,-1.82
1.34,0.84,0.14,0.58,-1.94,-0.46,-2.6
1.342,0.85,0.15,0.58,-1.88,-0.85,-2.05
1.344,0.85,0.14,0.58,-2.31,-0.78,-1.57
1.346,0.85,0.14,0.58,-1.86,-0.63,-1.77
1.347,0.86,0.14,0.57,-2.12,1.11,-1.86
1.349,0.85,0.14,0.57,-2.46,1.97,-2.43
1.351,0.85,0.09,0.55,-2.47,-1.02,-3.07
1.353,0.85,0.14,0.58,-1.53,0.09,-2.23
1.355,0.85,0.14,0.57,-0.98,-1.01,-2.27
1.357,0.85,0.14,0.59,-0.98,-1.59,-1.68
1.359,0.85,0.14,0.58,-1.92,-1.59,-1.82
1.36,0.86,0.07,0.59,1.76,-10.06,-0.34
1.362,0.83,0.13,0.6,-1.39,-4.0,-1.39
1.364,0.83,0.13,0.58,-1.18,-2.7,-1.74
1.366,0.83,0.14,0.63,-0.64,-1.44,-2.84
1.367,0.85,0.15,0.58,-2.18,-0.12,-2.24
1.369,0.85,0.14,0.58,-1.92,-0.76,-1.89
1.371,0.85,0.14,0.58,-2.15,-0.06,-2.31
1.373,0.85,0.14,0.56,-1.45,-0.2,-3.36
1.375,0.83,0.15,0.59,-1.15,-1.79,-2.27
1.377,0.84,0.15,0.58,-0.96,-2.69,-1.27
1.378,0.84,0.13,0.57,3.04,2.46,-4.11
1.38,0.85,0.14,0.59,1.36,1.27,-2.93
1.382,0.85,0.14,0.58,-0.44,-0.44,-2.23
1.384,0.87,0.14,0.56,2.24,1.6,-3.6
1.386,0.83,0.17,0.63,-1.66,-3.05,-2.2
1.388,0.84,0.14,0.58,-1.36,-0.73,-2.49
1.39,0.85,0.15,0.58,-0.98,-0.06,-3.31
1.391,0.86,0.15,0.56,-0.56,-2.29,-1.27
1.393,0.85,0.14,0.59,-2.37,-0.17,-2.29
1.395,0.84,0.14,0.58,-2.32,-0.52,-1.56
1.397,0.85,0.14,0.57,-2.52,-0.27,-1.77
1.399,0.86,0.14,0.53,0.21,-1.44,-1.62
1.4,0.96,0.1,0.44,-1.74,9.77,-4.95
1.402,0.85,0.13,0.57,1.76,4.58,-2.84
1.404,0.87,0.12,0.55,3.33,4.69,-3.98
1.406,0.86,0.14,0.56,-0.76,3.11,-2.2
1.408,0.87,0.16,0.58,-2.4,0.0,-1.71
1.41,0.87,0.1,0.54,-1.44,3.89,-4.81
1.411,0.85,0.14,0.59,-2.34,-0.52,-1.73
1.413,0.85,0.14,0.58,-1.77,1.19,-2.53
1.415,0.84,0.14,0.58,-1.24,1.02,-2.12
1.417,0.86,0.15,0.57,-0.79,0.2,-2.2
1.419,0.84,0.15,0.59,-1.25,-1.68,-1.54
1.421,0.84,0.15,0.58,-0.82,-2.23,-1.53
1.422,0.83,0.15,0.58,-1.11,-2.05,-2.12
1.424,0.87,0.07,0.57,2.06,-5.3,-3.11
1.426,0.83,0.15,0.58,-1.92,-0.12,-2.06
1.428,0.84,0.15,0.59,-1.5,-0.21,-2.17
1.43,0.85,0.15,0.57,-1.92,-0.34,-1.82
1.431,0.84,0.15,0.57,-2.11,-1.22,-1.48
1.433,0.84,0.14,0.57,2.38,-0.96,-2.17
1.435,0.84,0.16,0.6,-1.65,-0.52,-1.76
1.437,0.84,0.15,0.58,-0.66,-1.47,-2.02
1.439,0.85,0.15,0.58,-0.27,-1.79,-2.2
1.44,0.84,0.14,0.58,-1.18,-0.67,-2.35
1.442,0.84,0.14,0.58,-1.34,-0.38,-2.4
1.444,0.85,0.15,0.59,-2.15,-0.24,-1.77
1.446,0.84,0.15,0.59,-1.82,-0.41,-1.65
1.447,0.84,0.14,0.58,-1.39,0.14,-2.76
1.449,0.84,0.15,0.58,-1.47,-0.46,-2.47
1.451,0.84,0.15,0.58,-1.21,-1.39,-1.74
1.453,0.84,0.14,0.57,-0.98,-1.31,-2.53
1.455,0.85,0.15,0.58,-0.55,-1.95,-2.03
1.457,0.84,0.15,0.59,-1.16,-0.92,-2.73
1.459,0.76,0.23,0.65,-3.4,-0.44,-0.98
1.46,0.85,0.16,0.59,-0.75,-2.37,-1.97
1.462,0.83,0.15,0.57,-0.09,-3.56,-2.08
1.464,0.85,0.14,0.58,-1.88,0.34,-2.26
1.466,0.85,0.15,0.57,-1.54,0.29,-2.55
1.467,0.84,0.15,0.58,-0.75,-0.89,-2.15
1.469,0.85,0.16,0.58,-1.89,-1.44,-0.72
1.471,0.84,0.15,0.57,-2.17,-1.79,-1.37
1.473,0.85,0.14,0.57,-1.94,-0.99,-2.08
1.475,0.8,0.22,0.61,-0.53,-3.56,-0.38
1.476,0.85,0.16,0.59,-1.76,0.08,-1.63
1.478,0.85,0.15,0.58,-1.22,0.29,-1.74
1.48,0.84,0.15,0.57,-0.78,0.55,-2.6
1.482,0.86,0.15,0.57,-0.9,1.73,-3.07
1.484,0.84,0.15,0.58,-0.75,-0.72,-2.03
1.486,0.93,0.09,0.43,9.01,19.07,-9.91
1.488,0.85,0.15,0.6,-1.31,-0.06,-2.03
1.489,0.85,0.14,0.58,-0.9,-1.82,-2.29
1.491,0.84,0.15,0.59,-1.18,-1.05,-2.32
1.493,0.85,0.15,0.58,-1.1,-0.69,-2.44
1.495,0.85,0.15,0.57,-0.95,-0.41,-3.02
1.497,0.85,0.15,0.58,-1.04,-0.63,-2.87
1.499,0.84,0.15,0.57,-0.55,-1.71,-2.02
1.501,0.84,0.14,0.56,-0.09,-2.26,-3.34
1.503,0.84,0.15,0.58,0.37,-3.5,-2.92
1.505,0.85,0.16,0.59,-0.17,-2.06,-2.72
1.507,0.85,0.16,0.57,7.04,4.82,-5.45
1.509,0.86,0.16,0.58,-1.1,-0.12,-1.69
1.511,0.83,0.16,0.58,-0.93,-0.76,-2.69
1.513,0.85,0.16,0.57,-1.11,-0.81,-2.0
1.514,0.85,0.15,0.58,-0.38,-1.25,-2.35
1.516,0.84,0.15,0.56,-0.7,-0.41,-2.66
1.518,0.85,0.16,0.58,-0.31,-0.56,-2.78
1.52,0.84,0.16,0.59,-1.8,-1.01,-2.64
1.522,0.84,0.16,0.58,-2.06,-0.26,-2.29
1.524,0.85,0.16,0.58,-2.4,-0.49,-2.15
1.526,0.84,0.14,0.56,-0.79,-1.74,-2.35
1.528,0.85,0.16,0.58,-0.49,-0.99,-2.46
1.529,0.84,0.16,0.58,-0.5,-1.56,-1.82
1.531,0.84,0.16,0.56,-1.16,-1.56,-1.95
1.533,0.84,0.16,0.58,-0.92,-1.97,-1.85
1.535,0.85,0.16,0.58,-1.18,-0.08,-2.02
1.537,0.85,0.17,0.58,-1.89,0.08,-1.44
1.539,0.84,0.16,0.57,-2.44,-0.93,-1.22
1.541,0.84,0.12,0.59,-2.99,-2.26,-1.36
1.542,0.81,0.16,0.62,-0.92,-9.08,0.35
1.544,0.84,0.16,0.56,-1.39,1.95,-2.43
1.546,0.84,0.17,0.58,-0.7,0.82,-2.27
1.548,0.86,0.18,0.57,-0.56,0.64,-2.17
1.55,0.85,0.16,0.56,-0.64,-0.43,-1.83
1.552,0.85,0.16,0.57,-1.5,-0.09,-1.85
1.553,0.85,0.16,0.57,-1.63,-0.93,-1.4
1.555,0.81,0.14,0.64,0.23,-2.03,-2.76
1.557,0.84,0.15,0.58,-1.54,-0.87,-1.91
1.559,0.85,0.15,0.57,-0.55,-0.82,-2.63
1.561,0.85,0.17,0.57,-0.58,-1.68,-2.12
1.562,0.84,0.16,0.57,-1.45,-0.93,-1.8
1.564,0.84,0.17,0.57,-1.57,-1.34,-1.33
1.566,0.85,0.16,0.57,-1.94,0.17,-2.05
1.568,0.85,0.16,0.57,-1.65,-0.41,-1.8
1.57,0.84,0.16,0.58,-1.11,-0.6,-2.26
1.572,0.85,0.17,0.59,-1.28,-1.39,-1.34
1.573,0.84,0.16,0.58,-1.71,-0.73,-1.89
1.575,0.85,0.16,0.58,-1.71,-0.96,-1.54
1.577,0.84,0.15,0.57,-1.65,-0.5,-1.74
1.579,0.84,0.16,0.57,-1.74,-0.73,-2.29
1.581,0.86,0.16,0.58,-1.3,-0.95,-2.38
1.583,0.84,0.16,0.58,-0.64,-2.49,-2.75
1.584,0.87,0.17,0.55,-0.55,-1.13,-3.01
1.586,0.85,0.16,0.57,-1.28,-1.21,-2.09
1.588,0.85,0.16,0.57,-1.44,-0.82,-2.47
1.59,0.84,0.16,0.56,-1.54,-0.99,-2.21
1.592,0.85,0.17,0.57,-1.89,-1.28,-1.4
1.594,0.85,0.15,0.57,0.84,3.6,-3.28
1.596,0.92,0.16,0.55,-2.03,2.05,-1.76
1.597,0.83,0.15,0.56,-0.9,-1.04,-2.92
1.6,0.86,0.18,0.58,-1.83,-0.67,-1.44
1.601,0.84,0.16,0.57,-2.84,-0.11,-1.8
1.603,0.85,0.15,0.57,-2.49,-0.35,-1.88
1.605,0.84,0.16,0.57,-1.79,-1.28,-1.53
1.607,0.84,0.16,0.6,-1.54,-0.12,-2.05
1.609,0.85,0.17,0.58,-2.34,2.11,-2.76
1.611,0.84,0.16,0.57,-2.21,2.55,-2.2
1.613,0.85,0.16,0.57,-1.47,-0.63,-1.89
1.615,0.84,0.16,0.57,-2.09,-0.49,-2.05
1.616,0.84,0.21,0.57,-3.5,4.92,-1.65
1.618,0.84,0.17,0.59,-1.69,-0.12,-2.0
1.62,0.85,0.17,0.57,-1.5,-0.52,-2.46
1.622,0.84,0.16,0.56,-1.57,-0.73,-2.2
1.624,0.85,0.17,0.58,-1.27,-1.25,-1.83
1.626,0.84,0.16,0.57,-1.02,-1.97,-1.71
1.627,0.84,0.16,0.59,-1.77,-1.42,-1.68
1.629,0.84,0.15,0.57,-0.9,-1.1,-2.73
1.631,0.85,0.17,0.57,-1.92,-0.5,-1.8
1.633,0.85,0.16,0.57,-1.89,-0.72,-1.85
1.635,0.84,0.16,0.58,-1.42,-2.06,-1.74
1.636,0.85,0.16,0.57,-1.13,-0.93,-2.05
1.638,0.85,0.17,0.58,-1.62,-0.81,-1.77
1.64,0.84,0.16,0.57,-1.31,-0.27,-2.08
1.642,0.85,0.18,0.57,-1.36,-0.72,-2.81
1.644,0.84,0.16,0.57,-2.02,-0.06,-2.32
1.646,0.85,0.17,0.57,-2.03,-0.43,-1.88
1.647,0.84,0.16,0.57,-1.47,-0.26,-2.47
1.649,0.85,0.16,0.58,-1.37,-0.31,-2.75
1.651,0.84,0.16,0.57,-1.44,-0.64,-2.52
1.653,0.85,0.17,0.58,-1.44,-0.85,-1.92
1.655,0.85,0.17,0.58,-1.63,-0.95,-1.89
1.656,0.85,0.15,0.57,-1.6,-1.27,-1.68
1.658,0.84,0.16,0.58,-1.66,0.06,-2.37
1.66,0.85,0.17,0.58,-1.02,-0.99,-2.29
1.662,0.85,0.18,0.57,-1.27,-1.86,-1.51
1.664,0.85,0.16,0.57,-2.05,-1.13,-1.6
1.666,0.86,0.16,0.57,-2.6,-1.1,-1.71
1.667,0.85,0.16,0.57,-2.32,0.92,-2.12
1.669,0.85,0.15,0.57,-1.25,1.15,-2.15
1.671,0.84,0.17,0.58,-0.87,-0.11,-2.52
1.673,0.85,0.16,0.58,-1.76,0.37,-2.09
1.675,0.85,0.16,0.56,-2.08,0.9,-2.38
1.676,0.85,0.17,0.58,-1.89,-0.38,-1.69
1.678,0.84,0.16,0.57,-1.33,-1.4,-1.36
1.68,0.85,0.16,0.59,-1.63,-1.22,-2.11
1.682,0.85,0.15,0.57,0.52,-1.39,-2.53
1.684,0.91,0.17,0.57,-1.5,2.14,-2.75
1.686,0.84,0.16,0.56,-1.57,-0.92,-2.06
1.688,0.85,0.16,0.57,-2.18,-0.72,-1.69
1.689,0.84,0.16,0.58,-1.82,-0.66,-2.05
1.691,0.85,0.17,0.58,-1.4,-1.34,-1.85
1.693,0.85,0.16,0.57,-1.45,-1.45,-1.82
1.695,0.84,0.16,0.57,-1.83,-0.43,-2.41
1.696,0.84,0.16,0.58,-1.54,-0.09,-2.37
1.698,0.84,0.16,0.58,-1.11,-1.08,-1.77
1.7,0.85,0.16,0.56,-0.73,-2.46,-1.71
1.702,0.84,0.16,0.57,-1.31,-1.63,-2.34
1.704,0.83,0.11,0.59,2.67,-15.44,-2.18
1.706,0.86,0.17,0.57,-2.73,-0.66,-2.2
1.708,0.84,0.16,0.57,-2.55,0.08,-2.5
1.71,0.85,0.16,0.57,-1.74,-0.72,-2.05
1.711,0.85,0.16,0.57,-1.25,-0.98,-2.21
1.713,0.87,0.17,0.56,-2.46,-0.37,-2.0
1.715,0.85,0.16,0.57,-1.79,-0.21,-2.4
1.717,0.85,0.17,0.57,-2.03,-0.56,-2.17
1.719,0.85,0.17,0.56,-1.3,-1.02,-1.94
1.721,0.85,0.16,0.57,-1.66,-0.53,-2.02
1.723,0.85,0.16,0.57,-1.73,-0.26,-2.4
1.725,0.85,0.18,0.58,-1.21,-1.05,-2.23
1.727,0.85,0.16,0.57,-1.39,-2.0,-1.44
1.728,0.85,0.16,0.56,-1.51,-2.7,-1.4
1.73,0.91,0.17,0.54,-2.41,1.5,-2.17
1.732,0.84,0.13,0.58,-0.35,-1.89,-2.73
1.734,0.85,0.17,0.58,-1.18,1.37,-2.41
1.736,0.85,0.17,0.57,-1.48,0.63,-1.98
1.738,0.84,0.16,0.56,-2.24,0.26,-2.29
1.739,0.85,0.16,0.56,-1.86,0.24,-2.02
1.741,0.84,0.15,0.57,-1.18,-0.82,-2.31
1.743,0.84,0.15,0.6,-0.4,-1.62,-2.63
1.745,0.85,0.17,0.57,-1.5,-0.85,-2.18
1.747,0.84,0.17,0.56,-1.28,-1.31,-1.88
1.748,0.85,0.16,0.57,-1.83,-0.99,-1.89
1.75,0.85,0.17,0.58,-1.79,-1.25,-2.12
1.752,0.84,0.16,0.57,-1.45,-1.63,-1.71
1.754,0.84,0.16,0.57,-2.55,-0.75,-2.18
1.756,0.85,0.16,0.57,-2.24,0.24,-2.52
1.758,0.85,0.17,0.58,-2.24,0.17,-2.46
1.76,0.85,0.16,0.58,-0.99,-0.92,-2.4
1.761,0.85,0.16,0.57,-1.02,-1.47,-2.46
1.763,0.85,0.17,0.56,-1.45,-0.27,-2.6
1.765,0.86,0.18,0.57,-1.11,-1.4,-1.51
1.771,0.84,0.16,0.56,-0.82,-0.17,-2.56
1.777,0.9,0.12,0.47,3.98,15.02,-7.13
1.778,0.85,0.17,0.58,-1.47,0.79,-2.06
1.78,0.86,0.17,0.57,-2.17,0.41,-3.01
1.782,0.84,0.17,0.57,-2.15,0.15,-2.96
1.784,0.85,0.15,0.53,-2.0,1.4,-3.11
1.786,0.84,0.18,0.59,-1.77,-0.18,-2.87
1.788,0.85,0.18,0.57,-0.72,-1.94,-2.17
1.789,0.84,0.17,0.57,-1.71,-1.1,-2.18
1.791,0.85,0.16,0.58,-0.92,-1.1,-2.34
1.793,0.84,0.16,0.56,-1.05,-0.44,-2.89
1.795,0.85,0.18,0.57,-0.98,-1.11,-2.46
1.797,0.85,0.17,0.57,-0.6,-1.57,-2.24
1.799,0.85,0.17,0.58,-0.72,-1.63,-1.95
1.801,0.85,0.17,0.55,2.26,3.15,-2.96
1.803,0.85,0.16,0.56,1.53,-0.37,-3.56
1.805,0.89,0.14,0.54,2.08,7.25,-5.21
1.806,0.84,0.17,0.58,-0.78,1.16,-3.16
1.808,0.85,0.17,0.57,-0.75,0.55,-3.47
1.81,0.85,0.17,0.57,-0.41,0.03,-3.07
1.812,0.85,0.17,0.57,-1.27,-0.49,-2.09
1.814,0.85,0.17,0.58,-1.51,-1.28,-1.95
1.816,0.85,0.18,0.57,-1.4,-0.93,-1.8
1.818,0.85,0.17,0.56,-1.4,-0.93,-2.05
1.819,0.84,0.17,0.56,-1.66,-0.98,-2.47
1.821,0.85,0.17,0.56,-1.97,-0.23,-2.17
1.823,0.85,0.16,0.57,-1.42,-0.12,-2.23
1.825,0.85,0.18,0.57,-0.89,-0.69,-2.63
1.827,0.85,0.17,0.57,-1.19,-1.88,-2.21
1.829,0.84,0.17,0.58,-0.82,-1.68,-2.32
1.83,0.84,0.18,0.56,-0.99,-1.42,-2.43
1.832,0.86,0.17,0.57,-1.02,-2.41,-2.75
1.834,0.85,0.17,0.56,-1.24,-0.99,-1.88
1.836,0.84,0.19,0.58,-1.73,-0.58,-1.68
1.838,0.84,0.17,0.57,-2.18,0.31,-2.43
1.84,0.85,0.17,0.57,-2.15,0.11,-2.08
1.841,0.85,0.18,0.57,-1.86,0.09,-1.79
1.843,0.85,0.17,0.57,-2.08,0.32,-2.17
1.845,0.85,0.18,0.57,-1.8,-0.35,-2.05
1.847,0.85,0.17,0.56,-1.28,-1.1,-1.97
1.848,0.85,0.17,0.56,-1.13,-1.4,-1.51
1.85,0.84,0.17,0.57,-0.82,-0.93,-2.06
1.852,0.84,0.18,0.57,-1.08,-1.16,-1.79
1.854,0.85,0.18,0.57,-1.59,-1.04,-1.95
1.856,0.84,0.16,0.56,-1.4,-0.82,-2.15
1.858,0.86,0.18,0.57,-1.07,-1.4,-1.88
1.859,0.85,0.18,0.57,-1.83,-1.6,-1.54
1.861,0.86,0.18,0.57,-2.56,-1.86,-1.05
1.863,0.87,0.19,0.58,-2.56,-1.95,-1.13
1.865,0.84,0.15,0.56,-1.98,0.87,-2.89
1.866,0.86,0.18,0.57,-0.34,1.51,-2.67
1.868,0.84,0.17,0.57,-0.98,0.85,-3.24
1.87,0.85,0.19,0.58,-2.0,0.73,-2.29
1.872,0.83,0.19,0.58,-2.32,-0.27,-1.95
1.874,0.84,0.17,0.57,-2.78,-0.69,-1.3
1.876,0.85,0.17,0.56,-2.14,-0.76,-1.95
1.878,0.85,0.18,0.58,-2.26,-0.92,-2.23
1.879,0.83,0.17,0.57,-2.18,-0.63,-1.77
1.881,0.85,0.17,0.57,-1.76,0.11,-2.15
1.883,0.85,0.17,0.57,-1.77,-0.72,-2.06
1.885,0.85,0.17,0.57,-1.31,-1.53,-1.44
1.887,0.85,0.17,0.57,-1.92,-1.65,-1.36
1.889,0.84,0.17,0.57,-1.54,-0.75,-2.6
1.89,0.85,0.18,0.57,-2.12,-0.47,-1.97
1.892,0.84,0.17,0.58,-1.24,-0.31,-2.49
1.894,0.86,0.18,0.56,-1.44,-0.87,-2.0
1.896,0.85,0.17,0.57,-2.0,-1.39,-1.16
1.898,0.85,0.18,0.58,-1.62,-1.22,-1.69
1.9,0.84,0.17,0.56,-1.54,-3.57,-2.76
1.901,0.85,0.17,0.56,-1.86,-0.37,-2.06
1.903,0.85,0.18,0.57,-1.31,-1.28,-2.32
1.905,0.85,0.17,0.58,-1.53,-0.67,-2.43
1.907,0.86,0.17,0.56,-1.77,-0.37,-2.52
1.909,0.85,0.17,0.57,-1.56,-0.75,-2.31
1.911,0.85,0.17,0.57,-1.4,-0.61,-2.92
1.912,0.85,0.17,0.58,-1.22,-1.3,-2.0
1.914,0.85,0.16,0.58,-1.66,-1.27,-2.18
1.916,0.84,0.17,0.57,-1.1,-0.69,-2.67
1.918,0.85,0.18,0.56,-2.24,-0.29,-2.29
1.92,0.85,0.17,0.56,-2.09,-1.22,-2.17
1.922,0.85,0.17,0.57,-2.4,-1.08,-2.2
1.924,0.85,0.17,0.56,-1.74,-1.16,-2.23
1.925,0.85,0.18,0.57,-1.45,1.16,-2.49
1.927,0.91,0.15,0.56,0.03,3.02,-1.65
1.929,0.84,0.17,0.56,-0.76,-0.05,-2.87
1.931,0.84,0.18,0.56,-1.85,-1.01,-2.93
1.933,0.84,0.17,0.58,-1.56,-0.03,-2.0
1.934,0.85,0.17,0.57,-1.47,-0.76,-2.27
1.936,0.85,0.17,0.57,-0.82,-0.93,-2.37
1.938,0.85,0.18,0.56,-2.03,-1.48,-2.03
1.94,0.85,0.18,0.57,-1.73,-0.23,-2.37
1.942,0.78,0.14,0.63,0.03,-7.79,-3.31
1.944,0.84,0.18,0.56,-1.63,-0.6,-2.31
1.945,0.84,0.18,0.58,-1.83,-1.11,-2.03
1.947,0.85,0.17,0.56,-1.39,-1.5,-2.75
1.949,0.86,0.18,0.58,-1.34,-0.49,-2.2
1.951,0.85,0.18,0.56,-1.82,-0.32,-2.46
1.953,0.86,0.18,0.57,-2.35,-1.25,-1.82
1.955,0.85,0.18,0.56,-2.29,-0.21,-2.11
1.957,0.85,0.18,0.56,-1.31,-0.85,-1.73
1.958,0.85,0.18,0.57,-1.8,-1.48,-1.82
1.96,0.84,0.17,0.57,-2.31,-0.24,-1.3
1.962,0.85,0.17,0.56,-1.92,0.27,-2.29
1.964,0.85,0.18,0.57,-1.31,-0.38,-2.61
1.966,0.69,0.39,0.78,-5.68,1.45,-3.22
1.967,0.84,0.19,0.57,-1.66,-0.66,-2.26
1.969,0.85,0.18,0.56,-1.31,-1.33,-2.47
1.971,0.85,0.18,0.56,-1.76,-1.31,-1.68
1.973,0.85,0.18,0.56,-1.57,-1.27,-1.33
1.975,0.85,0.18,0.56,-1.48,-1.42,-1.47
1.977,0.88,0.18,0.55,-1.94,3.8,-2.63
1.979,0.85,0.17,0.56,-1.34,-1.3,-2.18
1.98,0.85,0.19,0.57,-1.36,-1.37,-1.8
1.982,0.84,0.18,0.56,-2.21,-1.24,-1.95
1.984,0.86,0.17,0.55,-2.23,-0.47,-2.11
1.987,0.85,0.17,0.56,-1.54,0.09,-1.92
1.988,0.84,0.2,0.59,-2.43,0.06,-1.94
1.99,0.82,0.17,0.57,0.73,-3.76,-3.62
1.992,0.89,0.17,0.49,-1.88,3.82,-3.53
1.994,0.85,0.18,0.58,-1.79,0.81,-2.24
1.996,0.85,0.18,0.56,-1.51,-0.38,-2.27
1.998,0.85,0.19,0.56,-2.06,-0.98,-1.65
2.0,0.85,0.18,0.56,-1.66,-1.42,-1.69
2.002,0.85,0.17,0.57,-1.54,-0.26,-2.23
2.004,0.87,0.18,0.58,-1.91,1.08,-1.88
2.006,0.85,0.17,0.56,-0.89,-1.76,-2.02
2.007,0.84,0.18,0.57,-1.1,-1.13,-1.51
2.009,0.86,0.18,0.56,-1.88,-0.6,-1.89
2.011,0.84,0.17,0.56,-1.88,-0.82,-2.17
2.013,0.85,0.18,0.56,-1.13,-0.76,-2.08
2.015,0.84,0.18,0.57,-1.13,-0.73,-1.91
2.016,0.85,0.18,0.57,-1.28,-0.18,-1.33
2.018,0.86,0.18,0.56,-1.44,-0.53,-1.37
2.02,0.85,0.18,0.56,-1.44,-0.56,-1.8
2.022,0.85,0.18,0.57,-0.93,-1.15,-1.4
2.024,0.86,0.17,0.56,-1.02,-0.73,-1.76
2.026,0.84,0.18,0.57,-1.44,-0.26,-1.92
2.028,0.86,0.18,0.57,-1.48,-0.09,-2.21
2.029,0.85,0.18,0.56,-1.59,-0.58,-1.28
2.031,0.85,0.18,0.56,-1.39,-1.02,-1.89
2.033,0.85,0.19,0.57,-1.18,-0.92,-2.08
2.035,0.85,0.18,0.56,-1.25,-0.9,-1.31
2.037,0.84,0.18,0.55,-0.6,-0.96,-2.15
2.039,0.85,0.19,0.56,-0.6,-1.63,-0.99
2.041,0.86,0.17,0.55,-1.95,-1.33,-1.5
2.043,0.86,0.18,0.55,-1.79,-0.32,-1.54
2.044,0.9,0.2,0.55,-1.74,1.1,-1.13
2.046,0.86,0.18,0.57,-2.58,0.0,-1.39
2.048,0.85,0.18,0.57,-1.92,-0.34,-1.08
2.05,0.84,0.18,0.56,7.3,12.73,-5.4
2.052,0.85,0.18,0.57,-2.98,2.61,-1.18
2.054,0.86,0.14,0.58,-2.6,2.05,-2.98
2.056,0.87,0.2,0.57,-1.77,5.85,-5.48
2.058,0.86,0.15,0.56,1.47,15.62,-4.87
2.059,0.94,0.22,0.55,-0.76,29.15,-4.31
2.061,0.89,0.22,0.6,-4.21,33.28,8.02
2.063,0.88,0.21,0.56,-3.44,72.56,12.43
2.065,0.81,0.18,0.54,-0.31,71.74,11.11
2.067,0.78,0.17,0.68,3.33,75.57,7.02
2.068,0.72,0.43,0.71,-3.11,44.75,52.23
2.071,1.11,0.37,0.59,-35.92,-1.69,3.95
2.072,0.88,0.18,0.6,-32.34,35.69,7.15
2.074,0.83,0.22,0.61,-22.76,63.94,-4.14
2.076,0.89,0.28,0.76,-35.44,94.27,-21.56
2.078,1.0,0.33,0.81,-60.87,153.45,-28.73
2.08,0.95,0.25,0.79,-52.63,210.55,-24.82
2.082,0.8,0.24,0.96,-53.76,239.85,-32.46
2.083,0.69,0.22,0.94,-69.02,293.83,-29.66
2.085,0.59,0.05,1.09,-74.24,250.09,-28.41
2.088,0.25,0.02,1.23,-88.56,186.7,-17.63
2.089,0.14,-0.01,1.27,-108.2,78.32,-14.12
2.091,0.22,0.06,1.28,-153.15,-16.63,7.48
2.093,0.2,-0.09,1.12,-140.81,-120.66,23.57
2.095,0.24,-0.18,1.03,-108.02,-132.06,24.82
2.097,0.36,-0.18,0.95,-85.73,-74.98,21.33
2.099,0.39,-0.1,0.9,-126.5,-5.16,18.49
2.101,0.36,-0.17,0.94,-139.08,67.8,2.46
2.102,0.29,-0.31,0.92,-76.9,34.92,6.26
2.104,0.28,-0.33,0.75,-39.88,6.96,-1.02
2.106,0.35,-0.3,0.78,-35.51,27.01,-8.81
2.108,0.36,-0.34,0.89,-53.04,63.04,-9.28
2.11,0.17,-0.4,0.89,-81.01,66.21,-13.89
2.112,0.14,-0.43,0.72,-72.76,8.95,-24.72
2.114,0.13,-0.44,0.77,-56.24,-70.7,-37.36
2.116,0.2,-0.35,0.48,-18.17,-117.44,-62.55
2.117,0.52,-0.39,0.7,-15.5,-84.14,-67.88
2.119,0.49,-0.35,0.74,-34.9,2.37,-62.73
2.121,0.35,-0.26,0.62,-23.4,24.7,-78.99
2.123,0.48,-0.25,0.72,-9.11,50.38,-83.33
2.125,0.56,-0.18,0.79,-8.81,71.82,-74.96
2.126,0.58,-0.23,0.76,9.4,67.48,-56.79
2.129,0.64,-0.22,0.73,33.8,48.0,-27.04
2.13,0.52,-0.23,0.73,59.39,49.77,-12.15
2.132,0.46,-0.32,0.9,74.56,64.44,-8.35
2.134,0.41,-0.35,1.03,47.3,97.82,-7.21
2.136,0.25,-0.37,0.94,23.66,98.02,-7.85
2.138,0.23,-0.35,0.88,5.4,37.77,-4.31
2.14,0.28,-0.3,0.8,1.5,-8.09,7.31
2.142,0.28,-0.28,0.82,0.21,-19.24,11.34
2.143,0.28,-0.26,0.78,0.31,0.26,6.53
2.145,0.24,-0.26,0.82,-0.6,24.85,1.37
2.147,0.19,-0.26,0.89,-6.9,32.18,-4.41
2.149,0.18,-0.23,0.8,5.28,11.54,-6.78
2.151,0.21,-0.22,0.84,18.08,-4.75,-5.51
2.152,0.21,-0.22,0.92,12.6,-3.11,-7.18
2.154,0.27,-0.21,0.86,14.12,17.1,-8.46
2.156,0.27,-0.16,0.96,4.75,36.02,-7.04
2.158,0.27,-0.17,1.01,7.07,34.4,-5.94
2.16,0.28,-0.19,1.03,7.53,20.46,2.2
2.162,0.2,-0.21,1.1,6.67,-9.51,8.55
2.163,0.16,-0.23,1.12,4.09,-39.28,9.54
2.165,0.15,-0.23,1.11,-6.49,-44.41,4.55
2.167,0.22,-0.23,1.03,-12.41,-39.79,-0.72
2.169,0.3,-0.21,0.93,-9.54,-33.54,-4.56
2.171,0.36,-0.2,0.91,-2.26,-26.37,-3.66
2.173,0.35,-0.19,0.91,2.87,-15.34,-2.26
2.175,0.38,-0.19,0.91,6.63,-3.83,2.53
2.177,0.36,-0.2,1.01,4.82,5.11,6.49
2.179,0.32,-0.21,0.97,3.56,2.75,9.95
2.18,0.31,-0.21,0.98,5.91,2.34,11.4
2.182,0.29,-0.19,1.03,1.51,1.85,10.61
2.184,0.29,-0.2,0.99,-0.92,7.18,6.69
2.186,0.29,-0.2,0.97,0.67,10.56,3.05
2.188,0.27,-0.2,0.99,4.29,15.48,-0.63
2.19,0.33,-0.2,0.98,5.47,18.31,-0.85
2.191,0.32,-0.19,0.97,5.15,20.55,3.48
2.193,0.31,-0.19,0.98,8.82,13.07,7.24
2.195,0.29,-0.18,0.93,9.22,8.85,8.2
2.197,0.27,-0.19,0.94,8.05,8.0,6.9
2.199,0.25,-0.21,0.94,7.15,14.81,6.17
2.201,0.23,-0.21,0.99,7.59,20.58,4.06
2.202,0.22,-0.19,1.03,5.31,25.86,1.53
2.204,0.22,-0.2,1.02,3.85,17.01,2.49
2.206,0.2,-0.2,1.03,4.05,1.1,2.93
2.208,0.19,-0.19,1.02,3.11,-8.38,3.39
2.21,0.21,-0.2,1.01,0.99,-4.35,0.46
2.212,0.21,-0.2,1.01,-0.09,1.21,-1.18
2.214,0.22,-0.21,0.97,-0.34,4.46,-2.64
2.215,0.23,-0.2,0.97,1.57,2.6,-2.69
2.217,0.23,-0.19,0.98,2.18,2.03,-2.63
2.219,0.24,-0.19,0.98,3.13,2.4,-4.0
2.221,0.29,-0.17,0.96,4.17,7.69,-0.4
2.223,0.31,-0.16,0.96,4.99,13.76,5.28
2.225,0.32,-0.15,0.96,8.17,14.53,11.34
2.226,0.37,-0.12,0.99,13.76,11.44,20.35
2.228,0.34,-0.12,0.98,14.81,11.31,32.2
2.23,0.23,-0.16,0.97,20.27,-1.6,36.87
2.232,0.12,-0.19,1.0,26.35,-17.5,28.7
2.234,0.14,-0.19,1.05,27.91,-21.05,12.95
2.236,0.24,-0.16,1.13,22.53,-17.19,9.6
2.238,0.28,-0.13,1.12,11.44,-31.31,11.04
2.24,0.29,-0.11,1.05,24.93,-76.34,22.63
2.242,0.41,-0.08,1.08,37.15,-109.04,35.48
2.243,0.39,-0.07,1.15,37.37,-109.31,43.47
2.245,0.45,-0.03,1.13,28.92,-93.36,45.95
2.247,0.47,-0.02,1.08,30.24,-100.08,58.02
2.249,0.42,-0.04,1.08,34.66,-138.89,67.22
2.251,0.42,-0.1,1.08,38.82,-183.86,69.68
2.253,0.41,-0.11,1.21,12.93,-241.05,61.05
2.255,0.47,-0.13,1.05,-13.74,-253.3,54.72
2.257,0.53,-0.13,0.98,-16.55,-269.04,46.82
2.258,0.69,-0.19,0.72,-18.72,-209.54,41.16
2.26,0.75,-0.21,0.9,-36.61,-211.42,35.25
2.262,0.79,-0.14,0.56,-27.07,-216.5,31.98
2.264,0.82,-0.2,0.75,-35.13,-231.05,38.89
2.266,0.91,-0.17,0.4,-54.85,-209.13,48.18
2.268,0.76,-0.21,0.41,-55.3,-223.07,43.21
2.27,0.8,-0.25,0.32,-52.5,-228.78,38.29
2.273,0.77,-0.27,0.17,-24.84,-244.58,19.28
2.275,0.74,-0.33,0.36,-16.7,-281.69,-3.98
2.277,0.83,-0.28,0.31,-31.92,-282.72,-14.69
2.278,1.04,-0.2,-0.08,-32.58,-213.82,-1.22
2.28,1.16,-0.17,-0.32,-33.42,-155.18,29.34
2.282,1.03,-0.2,-0.15,-16.44,-173.28,47.57
2.284,0.73,-0.3,-0.02,-1.76,-241.79,30.75
2.286,0.84,-0.28,-0.18,10.7,-259.94,14.34
2.288,0.89,-0.32,-0.07,-4.26,-213.34,26.87
2.29,0.77,-0.33,-0.37,-48.15,-205.15,33.77
2.292,0.64,-0.32,-0.66,-34.6,-221.53,21.15
2.293,0.53,-0.34,-0.63,-8.72,-265.53,-8.72
2.295,0.64,-0.32,-0.63,-12.44,-281.6,-28.35
2.297,0.81,-0.31,-0.53,-19.33,-233.07,-20.44
2.299,0.91,-0.28,-0.48,-31.71,-185.79,4.87
2.301,0.76,-0.26,-0.64,-40.37,-143.92,32.31
2.303,0.52,-0.26,-0.59,-34.47,-165.92,31.37
2.305,0.25,-0.31,-0.61,-45.36,-177.27,21.08
2.307,0.19,-0.32,-0.6,-74.27,-166.64,4.12
2.309,0.09,-0.27,-0.62,-102.53,-151.77,-12.81
2.31,0.2,-0.17,-0.78,-123.13,-152.26,-19.68
2.312,0.25,-0.1,-0.95,-125.66,-140.78,-9.62
2.314,0.17,0.01,-1.08,-103.42,-108.53,3.54
2.316,0.13,-0.07,-0.96,-98.52,-101.85,3.5
2.318,0.08,-0.06,-0.92,-97.53,-85.53,-0.4
2.32,0.08,-0.01,-0.94,-96.21,-80.24,-9.21
2.322,0.21,0.02,-0.93,-98.38,-74.18,-3.66
2.324,0.19,0.09,-0.99,-86.26,-48.17,11.73
2.326,0.15,0.14,-0.9,-108.58,-39.37,27.8
2.328,-0.0,0.13,-0.96,-103.59,-44.52,16.79
2.33,-0.03,0.2,-1.06,-96.37,-52.81,1.68
2.332,0.14,0.2,-0.92,-96.69,-50.7,3.59
2.334,0.07,0.26,-0.93,-100.24,-58.21,8.67
2.336,0.06,0.34,-1.07,-90.5,-62.99,11.28
2.338,0.12,0.32,-0.95,-82.12,-77.94,13.44
2.34,0.03,0.34,-0.9,-84.96,-75.76,24.15
2.342,-0.12,0.33,-0.88,-85.42,-84.55,22.08
2.343,0.0,0.42,-0.97,-83.4,-94.9,28.69
2.345,0.02,0.47,-0.9,-72.37,-97.28,51.36
2.347,-0.1,0.47,-1.04,-37.73,-101.85,49.18
2.349,-0.4,0.41,-0.9,-16.67,-105.44,25.45
2.351,-0.46,0.43,-0.96,-18.82,-102.93,2.27
2.353,-0.39,0.48,-1.07,-43.33,-67.6,8.6
2.355,-0.43,0.5,-0.98,-32.96,-30.56,4.98
2.357,-0.41,0.53,-0.92,-39.42,-38.21,-7.97
2.358,-0.34,0.63,-1.08,-23.13,-30.32,-10.47
2.36,-0.34,0.65,-1.15,-10.35,-18.84,-5.44
2.362,-0.32,0.58,-0.99,-0.69,-3.97,0.82
2.364,-0.33,0.5,-0.84,-10.66,-3.73,1.37
2.366,-0.34,0.5,-0.9,-13.73,-2.93,1.22
2.368,-0.42,0.5,-0.97,-13.15,2.84,-1.47
2.37,-0.36,0.48,-0.89,-14.87,-0.58,-3.65
2.371,-0.25,0.46,-0.96,-11.37,-2.89,-2.52
2.373,-0.28,0.49,-0.96,-5.3,13.19,2.44
2.375,-0.38,0.5,-0.76,-12.98,0.96,-3.98
2.377,-0.35,0.56,-0.9,-11.98,-8.03,-9.85
2.379,-0.28,0.58,-1.03,-3.04,1.66,-6.35
2.381,-0.3,0.56,-0.95,4.05,8.47,-2.08
2.382,-0.32,0.53,-0.88,7.42,13.31,-2.95
2.384,-0.33,0.51,-0.84,2.73,14.37,-6.09
2.386,-0.3,0.52,-0.89,-0.5,4.72,-11.1
2.388,-0.26,0.55,-0.94,0.93,-4.05,-11.39
2.39,-0.23,0.52,-0.91,6.4,2.15,-6.47
2.392,-0.23,0.48,-0.85,3.4,7.53,-3.28
2.394,-0.31,0.42,-0.86,5.08,2.49,-4.78
2.395,-0.22,0.51,-0.9,7.89,11.3,-0.99
2.397,-0.23,0.51,-0.95,12.4,20.02,5.19
2.399,-0.35,0.46,-0.83,16.56,3.22,-5.07
2.401,-0.3,0.46,-0.84,12.7,-0.47,-10.93
2.403,-0.3,0.46,-0.88,15.44,-0.43,-14.24
2.405,-0.21,0.45,-0.9,18.78,11.28,-11.45
2.407,-0.17,0.43,-0.73,13.95,16.4,-3.15
2.408,-0.27,0.42,-0.81,2.78,11.91,0.12
2.41,-0.32,0.4,-0.84,-6.06,4.81,-6.15
2.412,-0.25,0.46,-0.96,1.83,1.24,-7.94
2.414,-0.23,0.45,-0.93,12.87,-5.25,-3.65
2.416,-0.18,0.43,-0.85,19.47,2.78,2.61
2.418,-0.35,0.37,-0.75,7.37,-3.47,0.11
2.419,-0.3,0.4,-0.93,-1.42,-5.27,-7.62
2.421,-0.27,0.42,-0.99,5.83,-4.31,-10.0
2.423,-0.23,0.42,-0.94,16.6,1.1,-7.92
2.425,-0.24,0.41,-0.82,11.89,0.52,-7.94
2.427,-0.24,0.41,-0.89,4.81,2.84,-6.37
2.429,-0.22,0.43,-0.92,6.73,11.3,-5.6
2.43,-0.22,0.43,-0.91,5.77,7.16,-4.12
2.434,-0.27,0.4,-0.88,5.98,6.26,-3.91
2.435,-0.25,0.39,-0.89,5.88,5.16,-6.47
2.437,-0.23,0.4,-0.91,5.95,9.44,-5.65
2.439,-0.25,0.41,-0.92,8.89,9.8,-5.65
2.441,-0.21,0.39,-0.85,5.02,8.69,-5.05
2.443,-0.2,0.38,-0.9,5.48,9.91,-2.75
2.445,-0.2,0.37,-0.86,3.94,10.11,-2.43
2.447,-0.24,0.39,-0.9,-1.15,-0.46,-2.73
2.449,-0.25,0.39,-0.97,5.19,1.63,-4.18
2.45,-0.24,0.39,-0.93,4.2,6.87,-3.05
2.452,-0.24,0.38,-0.95,7.04,10.56,-2.84
2.454,-0.26,0.38,-0.84,2.4,2.32,-6.44
2.456,-0.21,0.38,-0.92,-3.82,-0.08,-7.47
2.47,-0.2,0.38,-0.95,0.03,-1.39,-6.63
2.489,-0.19,0.39,-0.95,0.9,2.03,-2.09
2.507,-0.21,0.37,-0.9,2.66,7.1,-0.55
2.531,-0.24,0.37,-0.88,-4.24,-2.52,-4.05
2.549,-0.22,0.38,-0.94,-3.25,1.42,-4.23
2.568,-0.21,0.38,-0.96,-0.23,4.41,-4.23
2.591,-0.21,0.38,-0.92,4.92,6.72,-3.74
2.609,-0.2,0.36,-0.85,-1.69,-2.44,-4.43
2.628,-0.2,0.38,-0.93,-1.95,-1.57,-4.5
2.651,-0.23,0.38,-0.91,-1.95,1.27,-3.85
2.67,-0.22,0.37,-0.93,-1.94,6.46,-2.21
2.688,-0.21,0.36,-0.88,-3.11,4.58,-3.73
2.711,-0.21,0.38,-0.93,-1.3,2.31,-4.38
2.73,-0.2,0.37,-0.91,-0.26,-2.12,-4.93
2.748,-0.19,0.39,-0.97,0.32,1.39,-3.02
2.771,-0.19,0.38,-0.94,1.68,2.64,-1.25
2.79,-0.27,0.38,-0.94,3.28,0.58,-4.66
2.808,-0.25,0.38,-0.96,6.02,1.71,-8.69
2.831,-0.18,0.36,-0.9,3.6,4.05,-6.02
2.85,-0.22,0.35,-0.93,4.49,7.88,-4.05
2.868,-0.22,0.36,-0.9,1.28,1.89,-5.98
2.892,-0.2,0.34,-0.9,1.88,-0.43,-3.33
2.91,-0.22,0.35,-0.89,1.16,-1.79,-6.17
2.929,-0.2,0.36,-0.95,1.42,2.37,-4.6
2.951,-0.19,0.35,-0.95,4.47,9.76,-1.39
2.97,-0.22,0.34,-0.92,6.18,12.89,-1.57
2.989,-0.21,0.33,-0.91,6.37,11.44,-2.89
3.011,-0.24,0.36,-0.89,-2.53,-2.44,-6.34
3.03,-0.18,0.36,-0.96,-1.13,-3.05,-5.98
3.049,-0.19,0.36,-0.95,-2.05,-2.23,-4.08
3.072,-0.2,0.35,-0.93,-1.08,-2.95,-4.53
3.09,-0.18,0.34,-0.92,-3.25,-2.0,-3.04
3.108,-0.21,0.35,-0.96,-1.01,-0.11,-3.04
3.132,-0.22,0.36,-0.94,-0.63,-0.2,-3.89
3.15,-0.21,0.35,-0.96,0.98,-0.17,-4.09
3.169,-0.22,0.35,-0.96,4.26,2.72,-4.15
3.192,-0.24,0.34,-0.93,4.78,1.19,-7.39
3.21,-0.2,0.35,-0.93,0.03,1.39,-7.42
3.229,-0.18,0.34,-0.96,0.79,3.42,-6.18
3.248,-0.18,0.35,-0.95,2.66,2.84,-4.23
3.271,-0.18,0.34,-0.93,2.76,2.05,-2.37
3.289,-0.21,0.33,-0.91,-1.73,-2.89,-1.37
3.309,-0.22,0.33,-0.96,-2.66,-0.44,-2.43
3.33,-0.22,0.33,-0.95,-1.07,-1.02,-4.09
3.349,-0.19,0.33,-0.95,-2.32,3.45,-2.29
3.368,-0.2,0.35,-0.93,-4.21,-1.45,-2.4
3.39,-0.21,0.34,-0.97,-4.32,-2.53,-2.29
3.409,-0.21,0.34,-0.96,-2.64,-3.91,-3.94
3.429,-0.21,0.35,-0.97,0.15,-1.45,-3.98
3.45,-0.19,0.36,-0.94,-1.18,0.24,-2.23
3.469,-0.21,0.34,-0.94,-0.81,0.35,-2.02
3.487,-0.21,0.33,-0.92,-2.79,-1.74,-2.85
3.51,-0.2,0.34,-0.96,-1.36,1.66,-2.5
3.529,-0.23,0.34,-0.93,-0.23,1.25,-3.79
3.547,-0.21,0.34,-0.92,0.27,0.66,-3.69
3.57,-0.2,0.34,-0.9,-2.06,-1.25,-3.19
3.589,-0.21,0.34,-0.96,-1.21,1.47,-3.31
3.608,-0.21,0.33,-0.95,0.89,7.02,-3.28
3.631,-0.22,0.35,-0.96,1.59,6.93,-5.31
3.649,-0.2,0.33,-0.92,1.63,3.57,-6.79
3.668,-0.19,0.34,-0.94,-0.05,1.4,-6.82
3.691,-0.21,0.35,-0.96,-0.55,-1.62,-6.72
3.71,-0.19,0.31,-0.94,0.06,-4.24,-4.92
3.729,-0.16,0.33,-0.95,-0.56,0.29,-2.27
3.751,-0.19,0.33,-0.94,1.11,2.53,-1.68
3.77,-0.2,0.32,-0.94,2.26,2.92,-2.87
3.788,-0.2,0.33,-0.94,2.95,3.4,-3.76
3.811,-0.21,0.33,-0.97,3.01,3.73,-4.17
3.83,-0.23,0.32,-0.94,3.91,4.34,-4.31
3.849,-0.23,0.32,-0.95,3.83,4.49,-7.1
3.871,-0.18,0.33,-0.92,-0.53,0.81,-6.53
3.89,-0.19,0.32,-1.0,2.44,3.3,-5.24
3.908,-0.17,0.32,-0.96,3.98,0.12,-4.99
3.931,-0.18,0.31,-0.94,1.74,2.87,-1.53
3.95,-0.22,0.31,-0.96,1.56,3.16,-3.77
3.969,-0.18,0.31,-0.94,-0.95,-2.89,-5.56
3.991,-0.17,0.3,-0.92,-2.21,-0.81,-4.09
