timestamp,acce_x,acce_y,acce_z,gyro_x,gyro_y,gyro_z
0.0,-0.05,-0.11,0.99,-0.41,1.44,-0.61
0.002,-0.15,-0.04,0.79,3.21,-5.59,-1.27
0.003,-0.04,-0.12,0.99,1.3,3.21,3.22
0.005,-0.05,-0.14,1.01,3.53,2.72,3.76
0.006,-0.04,-0.13,1.0,3.69,1.98,1.04
0.007,-0.06,-0.12,1.0,3.18,2.82,0.37
0.008,-0.05,-0.13,1.0,2.98,0.34,0.73
0.009,-0.04,-0.13,1.01,5.28,4.58,0.75
0.01,-0.04,-0.09,0.99,4.43,2.87,1.91
0.012,-0.04,-0.1,0.98,3.21,0.11,0.21
0.013,-0.03,-0.09,0.98,2.05,0.73,0.08
0.014,-0.06,-0.1,0.98,-0.56,0.09,0.92
0.015,-0.06,-0.11,0.98,-0.55,-1.36,2.11
0.016,-0.02,-0.15,0.99,1.02,-3.34,-0.38
0.017,-0.04,-0.15,0.98,4.29,1.63,-0.82
0.018,-0.05,-0.12,0.98,3.95,2.12,-0.14
0.019,-0.07,-0.11,0.96,3.07,2.87,-0.38
0.02,-0.07,-0.1,0.96,0.66,0.64,0.67
0.021,-0.06,-0.11,0.97,1.25,-1.51,-0.4
0.022,-0.06,-0.11,0.99,1.27,-0.4,0.41
0.023,-0.05,-0.11,0.99,2.61,2.32,0.6
0.024,-0.08,-0.11,1.0,1.76,1.05,1.16
0.026,-0.07,-0.12,1.01,2.75,-0.08,1.59
0.027,-0.06,-0.1,1.0,3.31,-0.55,3.24
0.027,-0.07,-0.1,0.98,1.79,-1.45,3.88
0.029,-0.04,-0.11,0.99,2.63,-0.73,5.08
0.03,-0.07,-0.11,1.01,3.27,-2.64,2.72
0.031,-0.05,-0.1,0.99,3.63,-3.13,2.95
0.031,-0.04,-0.1,0.99,3.3,1.3,4.2
0.032,-0.03,-0.1,1.01,3.37,-0.37,1.94
0.033,-0.04,-0.08,0.99,3.62,0.61,3.16
0.034,-0.06,-0.11,0.98,1.74,-1.3,3.19
0.035,-0.08,-0.12,0.99,2.35,-4.93,4.02
0.036,-0.09,-0.13,0.98,3.65,-10.0,8.58
0.037,-0.05,-0.13,0.98,4.18,-14.06,12.4
0.038,-0.06,-0.14,1.01,3.59,-19.74,16.26
0.039,-0.09,-0.14,0.99,0.69,-30.49,23.5
0.04,-0.04,-0.13,1.0,1.02,-47.54,34.06
0.041,0.05,-0.21,1.03,6.99,-46.75,40.53
0.042,0.18,-0.29,0.99,17.42,-48.52,34.4
0.042,0.26,-0.18,1.05,21.85,-33.33,29.54
0.043,0.32,-0.18,1.02,20.82,-15.91,24.06
0.044,0.34,-0.08,1.0,17.66,-2.35,15.34
0.045,0.28,-0.07,1.07,12.05,-4.38,5.28
0.046,0.26,-0.1,1.05,8.09,-6.31,0.34
0.047,0.28,-0.15,1.08,7.27,-7.16,-7.36
0.048,0.25,-0.13,1.1,11.3,-2.02,-12.06
0.048,0.23,-0.08,1.07,13.86,-1.76,-11.77
0.049,0.19,-0.09,1.07,11.56,-7.56,-8.46
0.05,0.19,-0.09,1.02,10.93,-3.33,-5.76
0.051,0.16,-0.07,1.0,10.98,-8.58,0.34
0.052,0.16,-0.04,1.03,7.08,-13.37,-0.66
0.053,0.22,-0.05,0.95,5.68,-17.33,-5.39
0.054,0.2,-0.08,1.01,6.52,-12.72,-1.62
0.054,0.23,-0.07,1.04,10.06,-18.14,3.13
0.055,0.24,-0.11,1.0,5.89,-9.39,-5.08
0.056,0.27,-0.04,1.0,8.72,1.13,-13.25
0.057,0.26,-0.03,0.99,2.89,-1.74,-21.1
0.058,0.27,-0.06,1.01,2.53,1.01,-26.05
0.059,0.26,-0.07,1.01,7.19,14.69,-22.78
0.059,0.24,-0.06,0.98,8.72,26.9,-17.69
0.06,0.19,-0.06,0.97,6.18,27.5,-24.81
0.061,0.16,-0.09,0.97,6.02,19.13,-37.68
0.062,0.11,-0.08,0.98,8.46,10.56,-45.18
0.062,0.07,-0.08,0.99,9.97,9.56,-43.04
0.063,0.07,-0.07,0.98,9.79,8.37,-41.39
0.064,0.06,-0.07,0.97,10.03,8.66,-42.98
0.065,0.07,-0.06,0.99,8.55,4.95,-47.16
0.066,0.07,-0.06,0.97,7.54,-6.5,-56.4
0.066,0.12,-0.04,0.95,6.84,-6.23,-62.44
0.067,0.11,-0.06,0.95,6.85,7.05,-62.53
0.068,0.05,-0.05,0.95,6.96,18.49,-58.81
0.069,-0.05,-0.03,0.96,6.66,2.76,-64.82
0.07,-0.03,-0.02,0.94,7.27,-17.77,-71.63
0.07,0.02,0.03,0.87,4.02,-16.9,-66.85
0.071,0.04,0.03,0.9,-4.81,0.27,-58.52
0.072,-0.04,0.01,0.96,-9.3,0.14,-57.88
0.073,-0.09,-0.05,0.97,-7.27,-5.54,-55.77
0.074,-0.05,-0.07,0.99,2.84,-14.96,-57.4
0.074,-0.01,-0.03,0.93,10.31,-10.93,-52.85
0.075,-0.01,0.03,0.9,4.7,-2.47,-48.93
0.076,-0.04,0.07,0.86,-5.98,3.25,-51.3
0.077,-0.07,0.03,0.88,-19.42,4.98,-56.31
0.077,-0.16,-0.09,0.81,-22.46,-9.08,-58.17
0.078,0.14,-0.02,1.01,2.12,-1.51,6.11
0.079,0.1,-0.01,1.01,-1.45,7.42,-1.65
0.08,0.05,-0.03,1.02,-3.47,9.02,-2.03
0.091,0.03,-0.04,1.03,-1.95,10.92,-1.89
0.115,-0.0,-0.04,1.01,-0.26,10.47,-1.48
0.133,0.02,-0.04,1.0,0.08,7.3,-4.18
0.151,0.03,-0.05,0.98,-0.99,6.11,-5.21
0.175,0.03,-0.05,0.98,-2.24,9.89,-5.02
0.193,-0.02,-0.06,1.0,-1.48,8.34,-1.68
0.212,-0.02,-0.07,0.99,0.31,2.52,0.96
0.235,0.04,-0.06,0.99,1.79,-2.31,0.23
0.254,0.06,-0.05,1.0,0.5,-1.79,-2.98
0.272,0.07,-0.06,1.01,2.66,-0.4,-5.07
0.291,0.06,-0.04,1.01,4.49,4.47,-1.53
0.314,0.03,-0.03,0.99,4.72,5.01,0.35
0.332,0.02,-0.03,0.99,4.52,-0.27,-0.27
0.355,0.0,-0.07,1.04,9.74,-5.53,2.14
0.374,0.01,-0.06,1.04,18.03,-4.66,7.63
0.392,0.04,0.0,0.98,19.02,-2.96,7.19
0.411,0.05,0.04,0.96,11.89,-0.23,0.93
0.434,0.03,0.05,0.95,3.18,0.17,-1.59
0.452,0.01,0.01,0.98,-3.62,1.36,-0.6
0.476,0.01,-0.03,1.01,-0.17,-1.01,0.5
0.494,0.02,-0.01,0.99,-0.7,-1.95,-1.37
0.512,0.04,-0.0,0.99,-1.56,-0.75,-1.66
0.53,0.01,0.03,0.99,-3.45,1.05,-1.88
0.554,-0.01,0.02,1.0,-5.42,-5.91,-2.99
0.573,0.02,-0.01,1.01,-5.25,-9.44,-3.1
0.591,0.04,-0.05,1.04,-4.75,-6.66,-1.37
0.614,0.06,-0.05,1.04,-0.53,-2.79,0.14
0.633,0.03,-0.02,1.02,-0.6,-0.11,-0.72
0.651,0.03,-0.03,1.02,-0.5,-1.37,-2.5
0.674,0.03,-0.03,1.0,1.04,-0.21,-3.28
0.693,0.01,-0.03,1.01,1.95,0.55,-2.61
0.711,0.01,-0.0,1.01,1.57,-0.81,-1.01
0.735,0.03,0.0,1.0,0.67,-2.9,1.04
0.753,0.04,-0.0,1.01,-2.26,-5.42,1.62
0.772,0.05,-0.04,1.03,-3.6,-7.88,-1.08
0.795,0.07,-0.08,1.05,1.1,-5.08,-3.91
0.814,0.06,-0.07,1.04,6.09,1.98,-4.99
0.832,0.02,-0.03,1.01,6.32,3.53,-3.77
0.85,0.02,-0.02,1.0,3.16,1.18,-1.33
0.874,0.03,-0.01,0.99,1.63,-0.76,-0.15
0.892,0.03,-0.02,0.99,-0.02,-3.36,-1.83
0.911,0.04,-0.04,0.98,1.02,-4.81,-2.37
0.934,0.06,-0.07,1.01,5.71,-4.09,-2.96
0.953,0.1,-0.06,0.98,10.24,13.88,-6.52
0.971,0.01,-0.13,0.96,6.67,0.55,1.89
0.992,0.01,-0.05,0.96,4.55,5.45,-5.57
1.016,0.04,0.01,1.08,2.63,-5.62,-3.11
1.034,0.04,-0.04,0.99,1.02,-1.57,-2.67
1.052,0.04,-0.04,0.98,0.5,-0.06,-4.75
1.071,0.01,-0.03,0.97,-0.17,-3.8,-8.9
1.094,-0.02,-0.0,0.96,-2.98,-6.14,-10.58
1.112,-0.03,-0.03,0.98,-5.3,-11.53,-11.01
1.136,-0.03,-0.03,0.98,-5.8,-22.9,-13.79
1.154,0.0,-0.03,0.99,-6.43,-29.42,-13.8
1.172,0.06,-0.04,0.99,-7.85,-18.26,-8.9
1.195,0.09,-0.06,0.97,-6.61,-0.09,-5.76
1.213,0.05,-0.06,1.02,-8.96,5.56,-3.34
1.232,0.02,-0.07,1.04,-5.48,-0.67,-8.85
1.255,0.07,-0.1,1.05,-1.47,1.02,-7.34
1.274,0.07,-0.08,1.04,4.31,6.78,0.06
1.292,0.06,-0.07,1.03,7.02,10.4,-0.03
1.315,0.04,-0.05,1.05,6.85,10.18,-1.21
1.334,0.05,-0.05,1.01,6.64,8.72,-1.28
1.352,0.04,-0.04,1.0,7.04,7.28,-2.38
1.371,0.04,-0.03,0.99,6.41,8.17,-1.13
1.394,0.05,-0.03,1.01,7.47,10.08,3.95
1.413,0.07,-0.0,1.03,6.95,16.21,4.03
1.431,0.01,-0.01,1.04,5.22,6.0,1.59
1.452,0.02,-0.03,1.0,3.73,4.58,2.64
1.472,0.02,-0.05,1.01,3.88,5.74,2.27
1.492,0.01,-0.04,1.02,3.95,4.96,1.62
1.512,-0.0,-0.03,1.02,3.4,4.61,3.05
1.536,-0.02,-0.05,1.01,4.14,2.4,4.58
1.554,-0.01,-0.05,1.0,5.47,-0.37,3.11
1.573,0.02,-0.05,0.97,6.55,-0.82,2.14
1.591,0.01,-0.02,0.97,6.6,0.18,-0.81
1.614,-0.05,-0.01,0.97,2.46,-2.03,-2.08
1.633,-0.04,-0.02,0.97,-2.08,-8.27,-1.47
1.651,-0.03,-0.05,1.0,-5.98,-8.75,3.05
1.674,-0.01,-0.08,1.03,-0.15,-7.63,10.75
1.693,0.04,-0.06,1.02,6.11,-2.87,14.31
1.711,0.05,-0.02,0.99,3.22,-6.38,9.28
1.735,0.04,-0.02,1.01,2.2,-4.27,7.25
1.753,0.08,-0.02,1.04,1.69,1.44,13.19
1.772,0.06,-0.04,1.01,4.43,-2.63,11.63
1.795,0.08,-0.0,1.0,5.21,2.06,12.63
1.814,0.06,-0.02,0.99,3.31,5.83,10.79
1.832,0.01,-0.0,0.99,1.94,3.34,10.72
1.851,0.01,-0.02,1.02,-0.09,2.05,12.92
1.874,0.02,-0.04,1.04,2.24,3.25,16.05
1.893,0.03,-0.04,1.02,3.82,0.26,14.84
1.911,0.05,-0.02,1.02,3.86,0.96,14.66
1.935,0.01,-0.02,1.01,2.95,2.12,15.24
1.953,0.01,-0.02,1.01,1.54,-0.99,16.05
1.971,0.05,-0.03,1.03,1.65,-1.18,17.44
1.995,0.03,-0.03,1.02,4.08,-0.05,19.13
2.013,0.03,-0.02,1.02,4.05,-2.27,16.96
2.032,0.04,-0.02,1.01,3.62,-2.05,17.34
2.055,0.04,-0.01,1.01,3.25,-1.89,16.27
2.074,0.03,0.0,1.0,2.78,-4.49,15.95
2.092,0.06,0.0,1.0,1.22,-5.74,16.32
2.111,0.06,-0.02,1.01,0.49,-2.06,13.34
2.134,0.04,-0.02,1.0,0.56,-1.54,12.63
2.153,0.02,-0.01,0.99,-0.66,-2.18,11.88
2.171,0.02,-0.02,1.0,-2.02,-1.21,9.65
2.195,0.0,-0.0,0.98,-3.04,-1.33,12.35
2.213,0.03,0.0,0.98,-5.3,-1.73,13.47
2.231,0.06,-0.03,1.0,-5.15,1.25,12.93
2.255,0.02,-0.03,1.0,-4.6,1.34,12.58
2.273,-0.01,-0.03,1.0,-3.85,2.23,13.98
2.291,-0.02,-0.03,1.0,-1.73,1.13,19.31
2.315,-0.0,-0.03,1.01,1.08,-2.11,23.04
2.333,0.04,-0.03,1.0,2.12,-2.82,21.31
2.352,0.05,-0.01,0.99,2.5,1.74,24.08
2.375,0.05,-0.03,1.0,1.62,4.12,21.24
2.394,0.01,-0.0,1.0,3.33,10.26,22.82
2.412,-0.03,-0.01,0.99,3.51,4.58,27.94
2.431,0.04,-0.03,0.99,4.12,-0.29,26.66
2.454,0.1,-0.03,1.01,4.6,5.4,24.31
2.473,0.07,-0.01,1.01,5.42,11.01,23.27
2.491,0.02,-0.0,1.01,3.13,10.21,26.21
2.514,0.05,-0.02,1.02,2.46,7.65,20.37
2.533,0.04,-0.01,0.99,-0.35,0.03,20.2
2.551,0.04,-0.01,0.97,1.53,13.73,19.37
2.575,0.0,-0.01,0.98,0.12,12.15,21.19
2.593,-0.0,-0.04,0.86,1.63,13.8,21.74
2.612,0.07,0.0,0.86,-1.63,14.0,22.24
2.635,-0.02,-0.0,0.94,-6.2,8.56,23.83
2.653,-0.02,-0.0,0.97,-6.26,3.42,26.55
2.672,0.01,-0.05,1.01,-2.55,2.99,29.91
2.695,0.0,-0.03,1.0,1.13,0.89,29.54
2.714,0.0,-0.01,1.0,-0.64,-1.92,30.47
2.732,-0.0,-0.03,0.99,-2.81,-5.89,32.61
2.755,-0.0,-0.06,1.04,-2.82,-11.28,32.79
2.774,0.06,-0.07,1.02,-1.45,-10.43,30.38
2.792,0.12,-0.05,1.07,-0.02,-3.62,27.66
2.815,0.05,-0.06,1.05,1.56,-2.61,26.06
2.834,0.04,-0.04,1.04,2.34,-5.69,25.57
2.852,0.05,-0.04,1.03,2.64,-4.67,25.66
2.876,0.07,-0.06,1.04,4.35,-6.37,23.16
2.894,0.1,-0.05,1.03,5.04,-0.34,22.79
2.913,0.11,-0.05,1.0,3.54,3.89,20.21
2.931,0.08,-0.04,0.97,1.77,7.18,20.61
2.954,0.08,-0.09,0.98,2.96,4.41,16.34
2.973,0.06,-0.06,0.96,7.53,5.3,16.58
2.992,-0.0,-0.03,0.94,2.5,-1.16,17.62
3.015,0.04,-0.03,0.93,-0.76,-3.18,20.85
3.033,0.08,-0.06,0.97,-3.54,-6.29,16.99
3.051,0.04,-0.05,0.98,0.05,-6.03,17.01
3.075,0.06,-0.01,0.97,-1.39,-2.81,18.49
3.093,0.03,-0.01,0.98,-4.56,-1.36,16.99
3.112,0.04,-0.02,1.01,-6.96,-4.96,14.29
3.135,0.03,-0.03,1.02,-5.92,-3.92,14.27
3.153,0.03,-0.03,0.99,-2.89,-7.95,14.58
3.172,0.03,-0.06,1.05,-2.24,-4.06,15.91
3.195,0.04,-0.06,1.03,-0.02,-0.05,17.24
3.213,0.0,-0.04,1.0,-0.23,-1.83,16.52
3.232,0.02,-0.05,1.01,0.69,-2.52,17.98
3.255,0.06,-0.03,1.0,0.14,-0.5,18.24
3.274,0.02,-0.03,1.0,1.56,-1.56,17.22
3.292,0.06,-0.0,0.98,1.88,-1.92,18.11
3.311,0.08,-0.01,1.01,-1.02,-2.58,14.78
3.334,0.05,-0.05,1.03,-0.4,-2.5,14.99
3.352,0.06,-0.05,1.02,1.6,-1.95,15.36
3.371,0.07,-0.05,1.02,3.33,-5.71,12.73
3.394,0.07,-0.05,1.0,3.44,-6.4,11.31
3.413,0.08,-0.05,1.0,1.08,-1.97,9.77
3.431,0.05,-0.01,0.99,2.23,4.96,6.69
3.452,0.07,-0.05,1.01,-0.64,-0.63,4.76
3.475,0.05,-0.04,1.01,-3.51,-0.53,3.97
3.494,0.03,-0.07,1.02,-2.46,1.44,7.69
3.512,0.04,-0.07,1.01,1.76,-2.47,10.37
3.531,0.02,-0.05,0.99,2.78,-4.64,13.65
3.554,0.06,-0.05,1.02,2.08,-6.73,15.1
3.573,0.1,-0.05,1.0,2.09,-2.64,14.32
3.591,0.11,-0.03,1.0,2.46,-2.47,12.41
3.615,0.12,-0.03,0.98,2.26,-0.4,10.61
3.633,0.12,-0.03,0.99,1.25,1.47,10.35
3.651,0.09,-0.05,0.98,1.37,0.75,7.13
3.672,0.09,-0.04,1.0,-0.17,1.97,6.98
3.696,0.07,-0.06,1.0,-0.81,1.91,7.68
3.714,0.07,-0.06,1.0,2.47,-0.53,5.85
3.732,0.08,-0.05,1.0,3.11,0.89,6.66
3.752,0.1,-0.05,1.0,2.43,0.82,4.38
3.772,0.07,-0.03,0.99,1.97,0.24,2.46
3.792,0.07,-0.02,0.99,0.63,1.28,2.29
3.812,0.05,-0.02,0.99,-0.78,1.51,1.65
3.836,0.06,-0.05,1.0,-0.44,2.44,1.16
3.854,0.04,-0.06,1.0,1.88,1.59,0.99
3.872,0.05,-0.03,0.99,1.07,2.89,1.36
3.892,0.04,-0.03,0.98,-0.11,2.27,0.32
3.915,0.02,-0.04,0.98,-0.37,1.65,0.85
3.934,0.04,-0.03,0.99,-1.33,0.66,1.74
3.952,0.06,-0.05,1.01,-0.24,0.69,-0.14
3.971,0.03,-0.03,0.99,0.78,1.71,-0.23
