timestamp,acce_x,acce_y,acce_z,gyro_x,gyro_y,gyro_z
0.001,0.06,-0.18,0.98,3.24,0.95,-2.84
0.002,0.05,-0.19,0.98,1.65,1.76,-2.34
0.003,0.06,-0.19,1.0,2.31,0.98,-0.64
0.005,0.07,-0.18,0.98,2.4,1.8,-0.23
0.006,0.06,-0.18,0.98,2.31,0.89,-0.26
0.007,0.07,-0.19,0.99,1.8,0.73,0.84
0.009,0.07,-0.19,1.0,1.76,1.73,0.18
0.01,0.07,-0.17,0.99,2.76,2.56,0.67
0.011,0.06,-0.17,0.99,0.81,1.66,-0.46
0.012,0.05,-0.18,0.99,1.92,-1.48,0.32
0.013,0.05,-0.18,0.99,2.14,0.99,2.29
0.014,0.05,-0.19,0.99,1.37,0.89,1.77
0.015,0.07,-0.18,0.99,3.53,0.55,3.4
0.017,0.06,-0.18,1.0,2.4,2.89,2.49
0.018,0.06,-0.18,1.0,3.97,0.63,2.6
0.019,0.06,-0.19,1.0,3.77,-0.27,2.4
0.02,0.06,-0.19,1.0,3.39,0.78,2.21
0.021,0.06,-0.18,0.99,3.71,0.18,2.61
0.022,0.07,-0.18,1.0,2.75,0.17,2.49
0.023,0.07,-0.18,0.99,1.51,-0.66,2.14
0.024,0.07,-0.19,0.99,2.53,-2.63,1.21
0.025,0.09,-0.18,0.99,3.25,-2.61,1.37
0.026,0.08,-0.19,0.98,2.26,0.56,0.78
0.027,0.08,-0.19,0.98,1.04,-0.35,0.09
0.028,0.08,-0.19,0.99,1.92,-1.04,-0.73
0.029,0.09,-0.16,0.96,1.37,-0.98,-1.18
0.03,0.08,-0.16,0.97,0.12,0.17,-1.88
0.031,0.07,-0.17,0.97,-1.5,0.02,-2.09
0.032,0.07,-0.18,0.97,-1.66,0.61,-1.57
0.033,0.07,-0.19,0.98,-0.6,1.97,-0.81
0.034,0.06,-0.18,0.98,-1.54,2.26,-0.44
0.035,0.06,-0.2,0.99,-0.98,0.58,-1.74
0.036,0.09,-0.19,0.98,0.05,0.95,-0.9
0.037,0.1,-0.18,1.0,-1.36,3.91,-2.93
0.037,0.09,-0.2,1.0,-0.14,2.52,-4.23
0.038,0.1,-0.22,1.01,0.38,3.11,-6.11
0.039,0.11,-0.24,1.02,2.03,5.36,-6.95
0.04,0.14,-0.25,1.02,3.65,7.54,-9.48
0.041,0.16,-0.28,1.02,7.37,6.9,-13.4
0.042,0.2,-0.28,1.0,9.98,9.86,-19.83
0.043,0.22,-0.28,1.0,12.31,12.18,-26.03
0.044,0.25,-0.28,0.98,13.68,14.12,-33.65
0.045,0.26,-0.3,0.97,13.97,13.22,-43.95
0.045,0.28,-0.3,0.95,14.76,11.04,-52.66
0.046,0.3,-0.31,0.93,13.33,15.25,-62.53
0.047,0.31,-0.31,0.94,11.79,16.44,-71.37
0.048,0.35,-0.33,0.97,9.21,16.76,-81.85
0.049,0.36,-0.35,1.0,8.18,16.31,-95.24
0.05,0.33,-0.38,1.03,10.26,12.87,-106.76
0.05,0.3,-0.39,1.01,9.05,15.37,-117.04
0.051,0.25,-0.43,1.04,8.87,19.74,-125.73
0.052,0.17,-0.45,1.06,11.1,19.69,-132.89
0.053,0.12,-0.46,1.05,13.83,22.02,-137.01
0.054,0.06,-0.44,1.04,15.24,26.24,-139.97
0.055,0.02,-0.41,1.02,17.5,25.86,-142.5
0.055,-0.01,-0.38,1.0,17.51,23.82,-145.56
0.056,-0.04,-0.39,1.01,18.96,20.17,-146.53
0.057,-0.07,-0.37,1.0,22.93,17.91,-145.47
0.058,-0.07,-0.33,0.97,22.69,18.44,-144.95
0.059,-0.05,-0.32,0.96,22.43,16.81,-145.24
0.059,-0.05,-0.28,0.94,23.59,18.18,-142.55
0.06,-0.07,-0.25,0.93,20.43,21.65,-142.26
0.061,-0.05,-0.23,0.94,19.8,15.04,-144.15
0.062,-0.03,-0.21,0.93,21.54,8.78,-142.93
0.062,-0.01,-0.16,0.92,17.45,11.73,-143.22
0.063,-0.02,-0.17,0.91,11.6,11.71,-144.56
0.064,-0.05,-0.17,0.91,10.81,6.2,-142.72
0.065,-0.1,-0.15,0.92,9.74,3.69,-141.02
0.066,-0.12,-0.13,0.9,5.97,-2.58,-136.46
0.066,-0.07,-0.15,0.93,-3.16,-7.92,-133.48
0.067,-0.06,-0.21,0.99,-11.19,-8.29,-131.98
0.068,-0.09,-0.24,1.02,-9.95,-7.48,-127.65
0.069,-0.1,-0.24,1.02,-7.57,-0.84,-119.91
0.069,-0.11,-0.24,1.04,-4.66,4.76,-113.86
0.07,-0.12,-0.21,1.04,1.44,4.96,-109.54
0.071,-0.11,-0.16,1.02,5.45,7.15,-104.85
0.072,-0.1,-0.12,1.02,8.06,13.3,-103.11
0.072,-0.12,-0.1,1.0,12.17,15.56,-99.01
0.073,-0.16,-0.06,0.98,14.64,17.51,-90.87
0.074,-0.17,-0.03,0.95,12.41,19.95,-84.11
0.074,-0.15,-0.0,0.94,10.27,17.34,-76.0
0.075,-0.13,0.0,0.93,6.89,14.56,-70.63
0.076,-0.09,-0.0,0.94,3.8,12.26,-65.47
0.077,-0.06,-0.0,0.93,1.98,16.52,-59.01
0.078,0.09,-0.08,0.99,3.15,-4.87,2.35
0.078,0.08,-0.07,0.99,3.8,-2.06,2.31
0.082,0.07,-0.09,0.98,1.3,2.61,1.66
0.106,0.08,-0.1,0.99,-0.32,3.42,0.17
0.124,0.07,-0.11,0.99,0.85,1.95,-1.3
0.143,0.06,-0.11,0.98,0.26,2.34,-3.01
0.161,0.07,-0.11,0.97,-0.05,1.54,-2.46
0.185,0.06,-0.1,0.98,0.49,5.36,-0.64
0.203,0.05,-0.12,0.99,-2.14,10.72,-1.13
0.221,0.06,-0.1,1.0,0.93,7.25,-2.67
0.245,0.07,-0.09,0.99,3.63,3.19,-3.51
0.264,0.05,-0.09,1.0,2.96,6.58,-3.28
0.282,0.01,-0.09,1.0,2.67,9.19,-3.8
0.306,0.03,-0.1,1.0,3.56,4.38,-3.74
0.324,0.02,-0.1,1.0,2.85,3.63,-2.53
0.343,0.02,-0.1,1.01,2.29,3.95,-4.24
0.361,0.02,-0.1,1.02,3.04,0.49,-3.22
0.385,0.01,-0.1,1.02,2.49,1.85,-2.53
0.403,0.0,-0.09,0.99,2.27,2.6,-3.34
0.422,-0.02,-0.08,1.0,1.27,1.31,-2.41
0.445,0.0,-0.09,1.02,-1.45,-0.61,-3.13
0.463,0.01,-0.09,1.02,-3.79,-2.95,-2.7
0.482,0.01,-0.1,1.03,-3.48,-1.88,-1.16
0.505,-0.0,-0.12,1.04,-4.06,-0.7,-1.07
0.523,0.01,-0.1,1.02,-1.79,-3.44,-1.25
0.542,0.01,-0.1,1.02,0.14,-3.92,-0.17
0.565,0.02,-0.1,1.01,-1.07,-2.35,-0.79
0.584,0.02,-0.1,1.01,1.16,-2.95,0.6
0.602,0.02,-0.08,0.99,0.73,-1.28,0.03
0.626,0.01,-0.07,0.98,1.33,-0.69,0.27
0.644,-0.0,-0.06,0.97,-0.38,-0.23,0.0
0.663,0.0,-0.08,1.0,-2.49,-1.5,-0.24
0.686,0.01,-0.11,1.02,-3.85,-4.27,-0.58
0.704,0.03,-0.14,1.02,-1.33,-7.36,-1.47
0.722,0.04,-0.13,1.01,0.11,-2.79,-0.18
0.741,0.04,-0.14,1.01,-0.34,3.89,-1.42
0.764,0.04,-0.15,1.02,-0.52,3.53,-1.86
0.783,0.01,-0.15,1.03,0.46,6.61,-3.25
0.802,-0.01,-0.13,1.03,2.08,7.34,-3.59
0.825,-0.01,-0.11,1.01,3.92,4.31,-2.64
0.843,0.0,-0.11,1.0,3.37,2.41,-2.5
0.862,0.01,-0.09,0.99,2.17,0.35,-3.1
0.885,0.02,-0.09,1.0,1.63,-1.53,-2.02
0.904,0.03,-0.1,1.01,0.02,-2.52,-2.63
0.922,0.03,-0.09,0.99,0.92,-3.8,-2.84
0.946,0.02,-0.1,1.02,0.58,-2.95,-2.53
0.964,0.04,-0.1,1.01,0.27,-2.79,-2.92
0.983,0.01,-0.1,1.01,1.74,-2.53,-2.26
1.001,-0.01,-0.1,1.01,0.85,-0.29,-2.29
1.024,0.0,-0.09,1.01,1.39,-2.02,-1.97
1.043,-0.0,-0.11,1.0,1.91,-4.27,-1.07
1.061,0.0,-0.09,1.0,1.5,-1.92,0.82
1.085,-0.01,-0.1,1.01,0.78,-0.15,1.19
1.103,-0.01,-0.1,0.99,0.56,-2.66,1.76
1.121,-0.01,-0.09,0.99,2.52,-3.44,2.32
1.145,-0.03,-0.09,0.98,1.3,-0.9,3.53
1.164,-0.0,-0.09,1.0,0.15,-2.34,4.87
1.182,0.02,-0.08,0.99,0.0,-3.04,7.16
1.205,0.03,-0.08,0.99,0.63,-1.42,7.62
1.224,-0.0,-0.07,0.98,-0.26,0.43,8.9
1.242,0.0,-0.08,0.98,-0.7,0.24,8.63
1.266,0.01,-0.1,1.01,-2.56,-2.29,10.44
1.284,0.03,-0.11,1.01,-2.11,-4.72,10.35
1.302,0.04,-0.11,1.02,0.26,-5.82,12.09
1.321,0.04,-0.13,1.02,0.49,-3.28,12.5
1.344,0.04,-0.1,1.0,1.56,-3.11,11.48
1.363,0.02,-0.11,1.0,2.43,-1.92,12.9
1.381,0.01,-0.12,1.0,0.92,0.32,12.75
1.405,-0.0,-0.12,1.0,1.02,-0.58,13.37
1.423,0.0,-0.1,0.99,2.23,-0.72,15.11
1.442,0.01,-0.1,0.99,1.85,0.11,16.2
1.465,0.02,-0.09,0.99,2.02,-2.81,16.18
1.483,0.02,-0.1,1.0,2.05,-3.33,17.68
1.502,0.0,-0.1,1.0,0.2,0.87,17.54
1.526,0.02,-0.1,1.0,1.71,-0.58,18.78
1.544,0.01,-0.1,1.0,2.08,-2.24,19.57
1.562,0.0,-0.09,0.99,2.53,-1.86,20.17
1.581,-0.01,-0.1,1.0,1.79,0.47,21.47
1.604,-0.02,-0.09,0.98,0.49,-0.56,21.54
1.622,-0.02,-0.09,0.99,1.8,-2.09,23.18
1.641,-0.04,-0.1,0.99,0.64,-0.29,24.44
1.664,-0.03,-0.08,0.98,0.9,-1.3,26.18
1.683,-0.03,-0.08,0.99,0.05,-3.28,28.08
1.701,-0.02,-0.09,1.0,-1.19,-3.07,29.77
1.724,0.0,-0.09,1.01,-1.77,-2.66,31.94
1.742,-0.0,-0.1,1.03,-3.22,-3.8,32.21
1.761,0.03,-0.09,1.02,-0.82,-5.59,32.76
1.784,0.01,-0.1,1.03,0.23,-4.92,33.44
1.803,0.02,-0.1,1.02,0.05,-3.8,32.82
1.821,0.01,-0.09,1.01,1.86,-5.94,33.97
1.845,0.01,-0.1,1.01,1.27,-4.73,34.37
1.863,0.01,-0.1,1.02,1.02,-5.68,35.21
1.882,-0.0,-0.12,1.02,0.56,-5.98,35.97
1.905,-0.01,-0.11,1.0,1.88,-6.73,35.83
1.923,-0.01,-0.11,1.0,2.69,-7.11,37.8
1.941,-0.0,-0.11,1.01,1.44,-5.76,38.85
1.965,0.0,-0.11,1.0,2.34,-7.28,40.23
1.984,-0.01,-0.11,0.99,1.97,-6.85,41.18
2.002,-0.02,-0.11,0.98,2.2,-5.97,42.31
2.025,-0.0,-0.11,0.99,0.9,-5.79,43.07
2.043,-0.0,-0.11,1.0,0.41,-7.6,43.95
2.062,-0.01,-0.12,0.99,0.89,-6.81,45.48
2.085,-0.02,-0.1,0.99,0.18,-5.28,46.05
2.103,-0.0,-0.12,0.98,-0.05,-6.43,48.44
2.122,-0.01,-0.12,0.99,-1.36,-6.41,49.71
2.145,-0.02,-0.13,0.99,-1.25,-6.92,50.89
2.163,-0.02,-0.12,0.99,-0.81,-7.4,52.14
2.181,-0.02,-0.14,0.99,-1.56,-8.99,53.56
2.205,-0.01,-0.14,1.0,-2.37,-8.43,55.44
2.223,-0.0,-0.15,1.01,-2.37,-7.15,56.81
2.241,-0.01,-0.16,1.0,-2.49,-8.14,56.95
2.265,0.0,-0.16,1.01,-1.08,-10.27,58.78
2.283,0.02,-0.16,1.0,-0.69,-8.58,59.05
2.301,0.01,-0.16,1.01,-0.4,-7.85,60.38
2.325,0.0,-0.17,1.01,0.14,-6.47,60.49
2.343,0.01,-0.17,1.0,0.5,-7.63,60.56
2.362,0.02,-0.16,0.99,2.32,-11.5,62.09
2.385,0.01,-0.17,1.0,1.63,-9.07,63.31
2.403,0.0,-0.18,1.0,0.09,-9.33,63.45
2.422,0.03,-0.17,1.0,1.21,-13.86,64.06
2.445,0.02,-0.17,0.99,1.63,-13.19,65.22
2.463,0.01,-0.18,0.99,0.11,-10.31,65.15
2.482,0.04,-0.17,0.99,0.27,-13.39,66.06
2.505,0.04,-0.17,0.99,0.24,-13.37,67.11
2.523,0.03,-0.17,0.98,-0.32,-10.84,68.89
2.542,0.04,-0.17,0.98,-0.56,-11.71,68.55
2.565,0.06,-0.17,1.01,-0.6,-15.56,68.2
2.583,0.08,-0.17,0.99,-1.07,-14.75,68.35
2.602,0.07,-0.17,0.99,-1.47,-10.03,69.21
2.625,0.06,-0.18,1.02,-2.12,-8.37,69.8
2.643,0.07,-0.19,1.01,-1.76,-12.41,68.02
2.662,0.07,-0.21,1.03,-0.52,-15.39,67.73
2.685,0.06,-0.21,1.02,1.18,-10.46,68.24
2.704,0.03,-0.18,0.99,3.95,-6.31,68.82
2.722,0.04,-0.19,0.99,5.66,-9.01,68.79
2.745,0.04,-0.18,0.98,4.29,-11.13,69.45
2.763,0.02,-0.17,0.98,4.18,-12.18,69.4
2.782,0.02,-0.17,0.98,3.3,-14.52,71.4
2.805,0.04,-0.18,1.0,0.84,-17.04,72.34
2.823,0.08,-0.2,0.99,-0.29,-17.89,72.76
2.842,0.08,-0.19,0.97,1.05,-18.95,72.95
2.865,0.12,-0.16,0.96,1.69,-18.12,74.09
2.883,0.06,-0.18,0.98,-2.64,-14.58,71.73
2.902,0.08,-0.2,0.97,-5.94,-16.46,70.49
2.925,0.08,-0.21,0.99,-6.21,-18.58,72.34
2.943,0.11,-0.22,1.0,-6.05,-18.15,74.87
2.962,0.08,-0.24,1.0,-4.93,-15.66,73.91
2.985,0.1,-0.24,1.0,-0.9,-18.23,72.85
3.003,0.07,-0.25,0.99,1.11,-18.69,72.85
3.022,0.04,-0.26,1.0,3.42,-17.65,72.63
3.045,0.07,-0.27,1.0,7.1,-21.13,73.3
3.063,0.07,-0.28,1.0,8.61,-25.28,73.94
3.082,0.06,-0.28,0.98,10.37,-28.69,71.69
3.105,0.07,-0.26,0.94,11.63,-32.92,67.39
3.123,0.09,-0.28,0.96,12.03,-34.38,73.45
3.142,0.1,-0.28,0.97,8.0,-23.37,80.27
3.165,0.17,-0.25,0.95,9.31,-21.8,82.96
3.183,0.21,-0.23,0.94,12.69,-26.23,85.31
3.201,0.25,-0.19,0.97,9.25,-24.27,80.56
3.225,0.29,-0.2,0.99,5.8,-24.17,77.21
3.243,0.32,-0.2,0.98,5.48,-22.44,74.79
3.262,0.38,-0.18,0.98,6.26,-16.09,72.58
3.285,0.42,-0.15,0.98,6.47,-6.18,71.16
3.304,0.41,-0.14,0.98,3.39,4.44,66.06
3.322,0.42,-0.12,0.95,4.64,3.57,55.16
3.346,0.4,-0.12,0.95,3.45,0.21,46.56
3.364,0.34,-0.14,0.95,0.69,7.39,40.29
3.382,0.33,-0.17,0.98,-3.74,12.09,31.31
3.401,0.32,-0.19,1.0,-2.4,3.6,23.59
3.424,0.26,-0.19,1.0,0.05,1.65,15.16
3.443,0.25,-0.19,1.0,1.36,3.82,10.96
3.462,0.21,-0.21,1.01,0.79,7.36,8.31
3.486,0.17,-0.2,0.99,-0.4,9.13,5.04
3.502,0.15,-0.2,0.99,0.52,6.7,2.98
3.522,0.14,-0.21,1.0,0.66,5.53,0.73
3.542,0.13,-0.19,0.98,2.09,5.33,1.28
3.562,0.15,-0.17,0.97,4.15,5.19,0.5
3.586,0.11,-0.19,1.0,2.78,8.34,-0.63
3.604,0.12,-0.17,0.98,1.16,4.21,-3.62
3.623,0.13,-0.16,0.98,5.16,3.22,-0.06
3.641,0.11,-0.16,0.99,0.24,9.95,-4.29
3.665,0.16,-0.15,0.97,3.13,-0.58,-4.18
3.683,0.1,-0.16,1.0,3.31,1.89,-3.15
3.701,0.13,-0.16,1.0,-0.12,5.48,-6.99
3.725,0.15,-0.14,0.96,3.68,-0.12,-4.46
3.744,0.08,-0.16,0.99,0.9,8.35,-5.73
3.762,0.1,-0.16,0.97,-1.45,5.04,-8.15
3.786,0.1,-0.15,0.98,3.15,-0.67,-5.15
3.804,0.09,-0.15,1.0,-0.79,5.13,-6.31
3.822,0.09,-0.16,1.01,-1.77,2.31,-6.6
3.846,0.11,-0.16,1.01,0.63,-2.0,-5.95
3.864,0.1,-0.15,1.01,-0.95,3.21,-4.67
3.883,0.07,-0.17,1.02,-0.31,5.59,-3.28
3.901,0.09,-0.16,1.02,0.49,-0.61,-4.76
3.925,0.11,-0.16,1.01,1.97,-5.11,-4.02
3.943,0.12,-0.17,1.02,1.34,-1.33,-2.44
3.961,0.13,-0.15,1.0,1.05,0.46,-3.42
3.985,0.12,-0.14,0.99,2.81,-1.24,-3.71
