timestamp,acce_x,acce_y,acce_z,gyro_x,gyro_y,gyro_z
0.002,0.23,-0.36,0.93,0.06,9.56,-1.36
0.011,0.25,-0.35,0.93,0.89,5.33,-2.7
0.018,0.24,-0.32,0.98,-1.53,4.56,-1.57
0.026,0.22,-0.33,0.94,-1.63,8.08,-2.14
0.034,0.24,-0.32,0.91,-2.56,1.57,-2.75
0.039,0.25,-0.34,0.91,0.12,0.67,-3.57
0.044,0.27,-0.32,0.93,-1.11,-0.72,-2.35
0.048,0.27,-0.33,0.91,-0.96,5.91,-2.06
0.052,0.28,-0.35,0.96,-1.28,8.43,0.72
0.056,0.19,-0.33,0.93,0.56,16.31,1.86
0.06,0.18,-0.34,0.93,-0.99,19.71,-3.71
0.064,0.2,-0.36,0.94,-0.55,16.67,-8.75
0.068,0.26,-0.32,0.91,-1.44,10.96,-6.0
0.075,0.25,-0.34,0.94,0.0,-0.29,0.76
0.081,0.22,-0.35,0.94,1.19,-4.99,5.18
0.087,0.18,-0.33,0.94,-0.18,-12.89,1.48
0.091,0.22,-0.33,0.89,0.35,-5.47,-3.71
0.095,0.23,-0.34,0.93,-0.05,-0.6,-3.74
0.1,0.24,-0.34,0.92,2.05,-2.78,-1.63
0.104,0.23,-0.35,0.93,2.27,-4.78,-1.42
0.108,0.23,-0.32,0.93,1.31,4.24,-3.24
0.111,0.22,-0.32,0.92,0.87,2.08,-3.45
0.114,0.23,-0.33,0.97,1.82,2.43,-0.32
0.116,0.2,-0.31,0.95,0.49,-3.02,1.22
0.118,0.19,-0.32,0.94,0.73,-3.4,-0.31
0.12,0.21,-0.32,0.92,-0.46,-1.34,-3.08
0.122,0.23,-0.34,0.93,1.63,1.36,-4.35
0.124,0.24,-0.32,0.93,1.54,2.58,-3.08
0.126,0.23,-0.3,0.95,-0.55,5.76,-0.87
0.128,0.22,-0.31,0.95,-1.77,4.81,1.47
0.129,0.18,-0.31,0.95,-3.02,9.42,2.38
0.131,0.14,-0.33,0.94,-1.97,2.14,-0.34
0.133,0.18,-0.34,0.93,-0.29,-1.77,-4.29
0.135,0.21,-0.33,0.93,0.12,-3.42,-3.94
0.137,0.21,-0.32,0.94,0.53,3.74,-4.75
0.139,0.23,-0.3,0.93,-0.26,-2.93,-3.65
0.141,0.29,-0.3,0.95,0.53,-0.95,-1.74
0.143,0.27,-0.28,0.96,-1.18,7.57,2.53
0.145,0.21,-0.29,0.93,-2.05,-0.85,4.99
0.147,0.26,-0.29,0.92,-4.0,1.1,7.05
0.148,0.24,-0.29,0.91,-5.34,8.02,8.32
0.15,0.25,-0.3,0.9,-5.65,13.71,11.11
0.152,0.22,-0.28,0.88,-7.13,15.63,12.27
0.154,0.22,-0.25,0.86,-9.01,20.24,14.14
0.156,0.23,-0.28,0.84,-7.8,22.78,20.72
0.158,0.13,-0.33,0.88,-5.08,26.75,31.45
0.16,0.06,-0.36,0.89,-4.08,21.5,35.37
0.162,0.05,-0.38,0.78,1.89,25.21,26.67
0.164,0.08,-0.37,0.78,-1.74,24.85,13.19
0.166,0.17,-0.39,0.73,7.18,42.84,2.12
0.168,0.16,-0.29,0.85,-3.69,51.8,5.01
0.17,0.05,-0.28,0.91,-2.29,53.95,14.4
0.172,-0.07,-0.34,0.94,1.27,38.96,19.6
0.174,-0.11,-0.34,0.91,-1.08,30.66,18.09
0.176,-0.08,-0.29,0.86,-8.92,20.15,11.74
0.178,0.0,-0.3,0.84,-7.31,17.94,4.32
0.18,0.1,-0.3,0.81,-11.28,30.31,6.72
0.182,0.1,-0.28,0.82,-8.6,36.24,13.16
0.184,0.06,-0.27,0.85,-6.89,38.09,22.63
0.186,0.0,-0.32,0.86,-4.02,36.63,28.49
0.187,-0.07,-0.39,0.82,3.76,55.79,23.02
0.189,-0.14,-0.38,0.85,4.38,54.46,13.31
0.191,-0.12,-0.31,0.83,-2.32,26.69,10.73
0.193,-0.08,-0.32,0.92,3.69,26.38,12.55
0.195,-0.1,-0.3,0.9,0.84,27.8,15.59
0.197,-0.07,-0.24,0.9,-7.48,40.18,13.53
0.199,-0.12,-0.26,0.91,-19.37,51.24,13.4
0.201,-0.21,-0.29,0.87,-17.21,33.53,15.86
0.203,-0.19,-0.33,0.95,-8.75,6.66,21.91
0.206,-0.15,-0.34,0.91,-8.92,-3.19,30.53
0.208,-0.24,-0.32,0.85,-17.85,-13.18,33.95
0.209,-0.31,-0.35,0.76,-15.36,-26.79,28.12
0.211,-0.31,-0.35,0.77,-5.15,-36.6,19.34
0.213,-0.25,-0.34,0.81,5.11,-58.14,14.49
0.215,-0.18,-0.33,0.8,9.39,-59.34,15.74
0.217,-0.0,-0.27,0.72,1.92,-48.4,18.81
0.219,-0.07,-0.34,0.72,9.08,-39.82,15.47
0.221,-0.08,-0.29,0.8,20.89,-36.15,12.27
0.224,-0.14,-0.19,0.99,11.1,-46.11,5.69
0.226,-0.07,-0.12,0.98,-5.3,-58.47,8.14
0.228,0.02,-0.29,0.88,-14.73,-35.65,8.78
0.23,-0.09,-0.41,0.87,-5.07,-47.24,4.2
0.232,-0.07,-0.45,0.84,9.88,-39.85,-3.89
0.233,0.0,-0.44,0.8,14.23,-43.56,-8.5
0.235,0.03,-0.24,0.82,16.81,-32.81,-18.46
0.237,0.1,-0.29,1.01,12.37,-11.33,-37.25
0.239,0.15,-0.27,1.14,5.94,8.69,-44.35
0.241,0.05,-0.24,1.18,-7.85,11.91,-35.42
0.243,0.03,-0.34,0.98,-9.48,-14.46,-28.78
0.244,0.01,-0.37,0.9,1.6,-27.92,-44.98
0.246,0.1,-0.37,1.01,18.18,-29.27,-60.78
0.248,0.25,-0.33,1.03,20.11,-33.71,-47.25
0.25,0.28,-0.33,0.98,22.85,-45.53,-9.33
0.252,0.19,-0.41,0.87,31.56,-66.03,15.16
0.254,0.15,-0.53,0.9,47.89,-65.13,8.49
0.256,0.14,-0.44,1.04,46.29,-35.1,-10.41
0.258,0.05,-0.25,1.11,34.55,-21.11,-29.15
0.259,-0.02,-0.16,1.08,25.69,-42.05,-36.35
0.261,0.13,-0.26,0.95,18.49,-64.17,-33.86
0.263,0.3,-0.32,0.9,14.35,-46.21,-38.44
0.265,0.24,-0.28,0.95,5.73,-13.21,-53.53
0.267,0.17,-0.26,0.94,2.53,-3.94,-75.39
0.269,0.27,-0.23,0.8,18.79,-23.94,-82.41
0.271,0.43,-0.28,0.81,42.11,-42.31,-64.73
0.273,0.64,-0.27,0.77,53.59,-36.67,-38.58
0.275,0.73,-0.11,0.84,49.98,24.98,-14.05
0.277,0.33,-0.14,0.82,47.6,86.89,-19.44
0.279,-0.11,-0.15,0.96,49.22,80.29,-70.21
0.281,0.09,-0.08,0.86,58.53,21.04,-108.96
0.282,0.56,0.09,0.94,47.08,72.58,-79.16
0.284,0.32,0.1,1.19,46.32,25.05,-10.67
0.286,0.07,0.13,1.28,3.69,-2.47,-3.44
0.288,-0.04,0.01,1.25,-35.48,67.97,-27.47
0.29,-0.12,-0.12,1.1,-6.37,-22.76,-35.44
0.292,0.16,-0.09,0.97,18.81,-30.31,-27.19
0.294,0.25,-0.04,1.12,25.8,40.67,-24.12
0.295,0.3,0.11,1.18,41.15,67.31,-20.56
0.297,0.24,0.11,1.2,58.64,31.28,-8.63
0.299,0.23,-0.01,1.05,34.49,-19.74,-12.56
0.301,0.26,-0.08,1.02,-0.02,-19.76,-17.62
0.303,0.25,0.06,1.16,-33.08,-6.96,-22.21
0.305,0.25,0.25,1.11,-37.21,2.31,-16.15
0.307,0.16,0.27,1.05,-5.11,25.95,21.1
0.309,-0.19,0.06,1.09,16.72,-29.82,2.11
0.31,-0.05,0.0,1.13,10.85,-59.63,-23.15
0.312,0.09,-0.03,0.99,6.67,-64.49,-30.23
0.314,0.24,0.11,1.05,17.16,-75.16,-26.0
0.316,0.63,0.21,1.06,13.68,-52.27,-25.22
0.317,0.5,0.2,1.1,21.47,-51.71,-6.05
0.32,0.46,0.2,1.22,24.32,-40.84,-2.05
0.322,0.43,0.14,1.1,13.28,-35.74,0.73
0.323,0.45,0.04,1.08,14.89,-10.75,8.24
0.325,0.25,0.13,1.28,14.92,43.56,14.23
0.327,0.29,0.11,1.18,-27.16,29.44,13.3
0.329,-0.01,0.1,1.16,-31.5,13.63,-6.53
0.331,0.15,0.04,1.06,2.96,9.68,-15.18
0.333,0.24,0.04,1.02,21.39,4.63,-7.25
0.334,0.32,0.04,1.13,12.12,20.32,0.35
0.337,0.21,0.1,1.01,-3.18,28.08,8.95
0.339,0.16,0.07,1.16,-2.6,14.75,9.45
0.341,0.14,0.04,0.99,8.53,8.63,5.34
0.342,0.15,0.06,0.99,23.36,4.89,1.13
0.344,0.17,0.09,1.08,24.46,5.65,-2.55
0.346,0.18,0.13,1.18,10.55,5.53,-4.5
0.348,0.21,0.14,1.12,-5.97,2.49,-3.34
0.349,0.22,0.1,1.02,-3.74,-8.26,1.65
0.351,0.21,0.1,1.03,-2.93,-9.73,4.84
0.353,0.2,0.1,1.01,-6.81,0.53,2.21
0.355,0.19,0.09,1.01,-4.37,6.49,1.88
0.357,0.18,0.09,1.04,-6.26,5.88,0.0
0.359,0.16,0.08,1.04,-9.74,-2.08,-1.19
0.36,0.18,0.05,0.96,-10.05,-6.26,-2.32
0.362,0.19,0.1,0.98,-7.79,-6.89,-6.6
0.364,0.23,0.09,0.97,-6.76,1.34,-4.41
0.366,0.22,0.11,1.05,-10.55,2.49,-1.19
0.368,0.21,0.08,1.04,-8.5,-3.24,-0.2
0.37,0.19,0.06,1.0,-8.15,-9.68,-1.6
0.372,0.19,0.06,0.96,-2.26,-14.53,-4.17
0.374,0.22,0.06,0.94,-0.58,-12.92,-5.65
0.376,0.23,0.07,0.95,3.53,-3.22,-8.37
0.377,0.26,0.09,1.04,-0.37,-4.76,-7.37
0.379,0.27,0.1,1.02,-7.02,-13.08,-2.03
0.381,0.24,0.08,0.98,-3.89,-8.43,-1.16
0.383,0.22,0.04,1.02,-3.22,-9.3,-5.05
0.385,0.24,0.05,0.98,-3.47,-11.3,-8.37
0.387,0.29,0.05,0.91,5.59,-8.84,-7.37
0.389,0.3,0.07,0.97,12.31,-6.0,-3.18
0.39,0.27,0.1,1.03,10.38,-1.83,-0.66
0.392,0.27,0.11,1.1,0.17,-1.82,-1.22
0.394,0.22,0.05,1.05,1.74,-9.79,-2.37
0.396,0.23,0.06,0.99,1.21,-16.66,-4.35
0.398,0.26,0.06,0.93,3.69,-14.82,-6.23
0.399,0.27,0.09,0.99,8.69,-10.63,-5.89
0.401,0.29,0.11,1.03,-1.31,-8.09,-4.35
0.403,0.29,0.09,0.96,0.98,-7.19,-3.83
0.405,0.29,0.11,1.03,-0.6,-10.06,-2.82
0.407,0.3,0.09,1.0,-6.69,-7.13,-2.24
0.408,0.27,0.07,0.95,-1.95,-3.04,-2.75
0.41,0.26,0.09,0.98,-0.15,-5.97,-5.94
0.412,0.3,0.09,0.98,0.03,-3.8,-5.88
0.414,0.28,0.1,0.98,-3.82,-4.43,-5.48
0.416,0.3,0.1,0.95,-2.89,-4.9,-4.38
0.419,0.33,0.11,1.0,-3.8,-1.08,-0.72
0.421,0.3,0.1,0.97,-3.28,1.25,1.07
0.422,0.27,0.1,0.96,0.32,-2.02,0.82
0.424,0.28,0.1,1.01,-4.92,-3.79,-0.6
0.426,0.28,0.08,0.93,-2.23,-1.45,-2.26
0.427,0.27,0.08,0.91,0.32,-3.45,-4.52
0.429,0.3,0.1,0.97,0.6,-3.68,-4.53
0.431,0.31,0.1,0.98,-0.67,2.5,-3.16
0.433,0.29,0.09,0.97,-0.58,-0.75,-1.92
0.435,0.29,0.09,0.96,0.24,-5.18,-2.56
0.437,0.3,0.09,0.98,1.73,-4.0,-2.27
0.439,0.3,0.1,1.01,-0.92,-0.37,-2.14
0.44,0.28,0.09,0.97,-1.51,-1.02,-2.79
0.442,0.31,0.1,0.98,-1.16,-1.76,-3.71
0.444,0.29,0.1,0.98,-3.44,-2.46,-3.3
0.446,0.3,0.09,0.96,-1.36,-3.57,-3.86
0.447,0.31,0.1,0.99,-0.93,-0.81,-2.75
0.449,0.32,0.1,0.99,-4.21,-1.27,-1.05
0.451,0.3,0.09,0.96,-5.07,-3.31,-0.61
0.453,0.3,0.08,0.97,-2.32,-3.16,-0.32
0.455,0.29,0.09,0.98,-4.7,2.24,-2.18
0.456,0.29,0.08,0.94,-2.69,1.36,-2.47
0.468,0.27,0.08,0.94,2.08,-1.28,-3.48
0.47,0.31,0.11,1.02,-2.76,0.03,-3.77
0.472,0.3,0.1,0.95,-4.03,0.9,-1.94
0.474,0.28,0.09,0.92,0.93,-2.37,-1.39
0.476,0.31,0.11,0.99,0.4,-1.04,-0.7
0.478,0.3,0.1,0.96,-0.09,1.36,-0.29
0.479,0.29,0.1,0.98,-1.77,0.46,-1.22
0.481,0.28,0.1,0.95,-3.34,-1.13,-2.05
0.483,0.29,0.08,0.93,1.3,-3.97,-3.18
0.485,0.31,0.1,0.99,-0.2,-0.23,-2.64
0.487,0.28,0.08,0.95,1.62,1.02,-2.67
0.489,0.29,0.1,0.99,3.45,-2.93,-3.85
0.49,0.32,0.12,1.04,-3.82,-2.96,-2.18
0.492,0.32,0.1,0.98,-4.87,-1.36,-1.59
0.494,0.3,0.08,0.95,-2.44,-4.08,-2.08
0.496,0.3,0.1,0.95,0.17,-4.73,-3.3
0.498,0.31,0.1,0.96,1.04,0.9,-2.72
0.5,0.31,0.1,0.96,1.01,2.08,-2.29
0.501,0.31,0.12,0.99,-1.59,-1.37,-1.57
0.504,0.32,0.1,0.97,-0.24,-0.2,-0.46
0.506,0.3,0.1,0.98,-3.01,-2.87,-0.2
0.508,0.3,0.1,0.95,-2.05,-1.15,-0.98
0.509,0.3,0.09,0.96,-0.38,-0.69,-0.21
0.511,0.3,0.1,0.94,-0.69,-0.76,-1.77
0.513,0.32,0.1,0.96,1.01,1.36,-0.93
0.515,0.32,0.11,1.01,0.35,4.72,0.6
0.516,0.3,0.1,0.98,-1.63,0.46,0.49
0.518,0.28,0.09,0.98,0.58,-3.66,0.18
0.52,0.29,0.1,0.98,-1.6,-1.94,-0.34
0.522,0.28,0.1,0.93,-1.74,0.05,-1.15
0.524,0.29,0.1,0.96,2.5,1.3,-1.59
0.526,0.29,0.11,1.0,0.52,1.01,-2.14
0.528,0.3,0.1,0.99,-1.74,-0.24,-2.63
0.53,0.3,0.1,0.96,-0.03,-2.43,-2.35
0.531,0.28,0.1,0.97,1.88,-3.98,-2.38
0.533,0.32,0.11,1.01,-1.47,0.35,-2.46
0.535,0.3,0.1,0.96,-2.35,1.73,-1.95
0.537,0.29,0.1,0.98,-1.11,-1.48,-2.15
0.539,0.29,0.1,0.97,-2.85,-4.53,-3.28
0.541,0.3,0.1,0.96,-2.18,-3.13,-3.47
0.543,0.31,0.1,0.94,-1.31,-1.07,-3.05
0.545,0.32,0.1,0.96,0.63,-1.21,-2.52
0.546,0.32,0.12,0.99,-3.02,-1.34,-1.08
0.548,0.31,0.1,0.96,-3.76,-1.94,-1.33
0.55,0.3,0.11,0.95,-1.69,-2.7,-1.57
0.552,0.32,0.1,0.97,-3.57,-0.46,-1.44
0.554,0.31,0.09,0.96,-3.28,0.11,-1.13
0.556,0.31,0.1,0.99,-1.71,-0.49,-0.96
0.557,0.29,0.1,0.98,-4.49,-2.87,-1.94
0.559,0.29,0.1,0.97,-4.9,-4.35,-2.38
0.561,0.3,0.1,0.97,-4.14,-2.98,-2.17
0.563,0.31,0.1,0.98,-2.82,0.96,-1.86
0.565,0.3,0.09,0.99,-1.37,1.08,-2.08
0.566,0.29,0.1,0.98,-1.21,-2.23,-3.18
0.568,0.29,0.1,0.96,-1.15,-3.01,-3.79
0.57,0.29,0.1,0.97,-1.48,-3.88,-4.52
0.572,0.31,0.1,0.97,-5.48,-1.57,-4.66
0.574,0.32,0.1,0.94,-2.96,-2.34,-4.05
0.576,0.31,0.11,0.93,-1.69,-2.18,-3.25
0.578,0.32,0.1,0.92,1.31,-3.25,-3.94
0.579,0.32,0.11,0.94,3.18,-1.57,-3.42
0.581,0.31,0.12,0.98,-0.11,0.81,-3.56
0.583,0.33,0.11,0.94,0.14,1.18,-3.01
0.585,0.32,0.11,0.96,1.6,-1.77,-1.94
0.587,0.33,0.11,0.98,1.95,0.03,-1.44
0.589,0.31,0.1,0.95,4.2,0.56,-1.07
0.591,0.32,0.11,1.02,1.21,-0.89,-1.39
0.592,0.31,0.1,0.98,-0.92,-0.12,-0.21
0.594,0.29,0.09,0.95,1.98,-1.8,-0.82
0.596,0.29,0.11,0.99,2.37,-4.67,-2.89
0.598,0.34,0.11,0.99,-0.58,-0.78,-2.29
0.6,0.31,0.1,0.97,-0.18,0.52,-1.71
0.602,0.3,0.11,0.98,0.52,-1.79,-3.15
0.604,0.31,0.11,0.97,-0.43,-4.29,-3.13
0.605,0.32,0.11,0.94,2.47,-1.91,-2.34
0.607,0.31,0.12,0.97,2.92,0.27,-2.58
0.609,0.34,0.13,0.98,-0.63,2.14,-2.29
0.611,0.32,0.12,0.95,-0.29,3.53,-1.63
0.612,0.3,0.12,0.97,0.34,-0.15,-2.05
0.614,0.32,0.11,0.93,3.19,0.73,-2.6
0.616,0.32,0.13,0.99,-0.15,1.08,-1.85
0.618,0.33,0.14,0.99,-5.25,4.76,0.17
0.62,0.31,0.12,1.01,-6.52,4.31,0.78
0.622,0.28,0.1,0.97,-5.86,-0.21,0.06
0.624,0.27,0.1,0.98,-4.17,-5.22,-2.23
0.626,0.29,0.09,0.95,-2.49,-3.56,-3.42
0.628,0.3,0.12,0.99,-2.64,-1.73,-3.68
0.629,0.29,0.1,0.95,-4.35,-3.89,-3.31
0.631,0.3,0.11,0.95,-2.11,-5.42,-4.67
0.633,0.31,0.13,0.99,-6.5,-4.03,-4.15
0.635,0.32,0.11,0.93,-5.07,-2.82,-4.46
0.637,0.32,0.11,0.92,-1.13,-5.71,-4.34
0.639,0.33,0.12,0.97,-2.24,-1.15,-3.85
0.64,0.33,0.11,0.94,-2.31,-1.04,-2.79
0.642,0.31,0.09,0.91,2.27,-3.07,-3.47
0.644,0.36,0.13,1.0,-0.82,3.24,-2.31
0.646,0.34,0.11,0.96,-1.85,2.46,-0.34
0.648,0.31,0.11,0.97,-2.26,0.06,-0.37
0.65,0.31,0.11,0.95,-1.68,-1.24,-1.54
0.652,0.31,0.1,0.92,3.3,-1.77,-1.85
0.654,0.33,0.13,1.01,-1.16,1.15,-1.08
0.655,0.32,0.11,0.95,-1.51,1.59,-0.47
0.657,0.3,0.11,0.97,1.4,-2.69,-0.92
0.659,0.29,0.12,0.98,-0.72,-2.18,-1.33
0.661,0.29,0.09,0.94,1.92,-0.52,-1.95
0.662,0.31,0.12,0.99,-0.26,0.41,-2.82
0.664,0.31,0.12,0.97,-2.67,2.38,-2.89
0.666,0.29,0.11,0.98,-2.61,-3.1,-3.85
0.668,0.31,0.11,0.95,-1.85,-5.8,-4.93
0.67,0.34,0.11,0.93,1.25,-2.26,-4.67
0.672,0.34,0.12,0.95,1.08,1.83,-3.56
0.674,0.34,0.14,0.98,-0.35,2.4,-0.81
0.675,0.31,0.11,0.97,0.34,2.29,-0.7
0.677,0.31,0.12,0.97,-2.26,-2.96,-2.67
0.679,0.32,0.11,0.93,1.19,-3.27,-3.22
0.681,0.34,0.13,0.95,2.44,-1.22,-1.79
0.683,0.33,0.14,0.98,-0.79,3.04,0.31
0.685,0.3,0.12,0.96,-0.12,0.67,0.81
0.687,0.29,0.13,0.98,0.24,2.15,-0.2
0.688,0.3,0.12,0.94,1.36,-1.74,0.27
0.69,0.31,0.14,0.97,1.08,-2.11,-0.35
0.692,0.31,0.12,0.91,0.06,0.49,-0.08
0.693,0.31,0.11,0.93,4.17,1.33,0.73
0.695,0.3,0.12,0.94,5.6,4.2,-0.2
0.697,0.3,0.12,0.95,7.76,2.85,-1.05
0.699,0.33,0.15,1.03,1.05,5.6,-0.9
0.701,0.29,0.12,0.97,0.81,1.86,-2.37
0.702,0.28,0.13,1.05,-0.79,-2.69,-5.3
0.704,0.28,0.13,0.98,-3.77,-8.53,-8.05
0.706,0.29,0.13,0.95,0.96,-10.92,-11.05
0.708,0.33,0.14,0.97,-2.06,-7.5,-11.07
0.709,0.33,0.12,0.92,1.22,-1.97,-10.2
0.711,0.32,0.15,0.99,-0.23,-3.97,-8.5
0.713,0.31,0.13,0.95,-0.79,-0.69,-8.47
0.715,0.31,0.13,0.94,1.11,-3.6,-9.59
0.716,0.32,0.14,0.94,1.27,0.21,-9.4
0.718,0.31,0.14,0.95,3.02,2.52,-10.15
0.72,0.32,0.15,0.96,1.95,2.84,-10.06
0.722,0.33,0.15,0.95,1.71,-0.82,-10.38
0.724,0.34,0.15,0.95,2.41,-0.12,-9.3
0.726,0.34,0.15,0.95,3.31,2.69,-8.2
0.727,0.33,0.15,0.97,1.95,4.78,-10.7
0.729,0.35,0.14,0.94,1.92,4.99,-9.25
0.731,0.34,0.14,0.94,4.18,1.54,-7.34
0.733,0.33,0.15,0.94,6.76,1.24,-5.02
0.734,0.32,0.15,0.93,6.73,-0.44,-3.65
0.736,0.33,0.16,0.94,8.53,1.74,-2.43
0.738,0.35,0.16,0.96,7.86,4.64,-0.47
0.74,0.33,0.17,0.99,3.62,5.28,0.44
0.742,0.33,0.17,0.97,3.28,3.94,1.56
0.743,0.32,0.17,0.98,2.66,3.85,1.73
0.745,0.32,0.18,1.01,1.08,6.53,1.62
0.747,0.29,0.19,1.0,-0.53,7.54,1.18
0.749,0.29,0.19,1.01,-1.8,4.34,0.06
0.75,0.27,0.2,0.98,-4.64,-2.06,0.43
0.752,0.26,0.19,0.94,-3.13,-0.79,-0.44
0.754,0.27,0.2,0.95,-2.67,3.88,-1.34
0.756,0.26,0.2,0.94,-1.95,4.38,-0.56
0.758,0.25,0.2,0.92,-1.01,1.04,-0.93
0.759,0.24,0.2,0.91,0.75,0.17,-1.07
0.761,0.26,0.19,0.91,3.79,3.11,-1.3
0.763,0.25,0.2,0.96,2.34,2.47,-0.6
0.765,0.25,0.17,0.95,1.98,0.61,-1.57
0.767,0.27,0.18,0.96,3.15,-0.89,-2.43
0.768,0.29,0.19,0.96,2.4,-4.98,-2.72
0.77,0.3,0.19,0.94,2.75,-5.36,-1.42
0.772,0.31,0.19,0.94,5.44,-4.32,0.2
0.774,0.3,0.19,0.92,7.51,-2.98,1.51
0.776,0.27,0.19,0.96,6.53,-2.46,1.3
0.777,0.24,0.18,0.96,1.95,-6.09,-2.12
0.779,0.21,0.17,1.0,-2.49,-12.67,-9.53
0.781,0.26,0.17,0.94,-2.34,-20.41,-16.05
0.783,0.32,0.17,0.92,0.06,-22.93,-19.28
0.784,0.38,0.17,0.89,4.84,-20.4,-19.36
0.786,0.45,0.18,0.9,10.64,-10.56,-14.43
0.788,0.46,0.18,0.96,10.85,-4.02,-6.93
0.79,0.46,0.18,0.96,9.92,5.66,1.24
0.792,0.41,0.18,1.0,9.51,11.22,7.51
0.794,0.33,0.18,1.04,5.56,11.63,8.41
0.795,0.32,0.17,1.03,4.02,11.44,6.14
0.797,0.31,0.19,1.04,1.36,5.3,3.44
0.799,0.32,0.22,1.0,-1.1,4.95,1.05
0.801,0.35,0.23,0.96,-0.53,7.33,2.26
0.802,0.34,0.25,0.98,-3.1,6.34,5.77
0.804,0.32,0.24,0.95,-3.69,11.21,7.45
0.806,0.28,0.24,0.95,-4.38,11.51,8.44
0.808,0.27,0.23,0.94,-4.05,10.85,7.05
0.809,0.24,0.23,0.94,-4.76,7.83,5.37
0.811,0.22,0.22,0.91,-3.5,4.92,2.85
0.813,0.22,0.23,0.93,-2.52,0.05,0.61
0.815,0.22,0.2,0.92,-1.79,0.81,-2.14
0.816,0.24,0.2,0.93,-0.64,-1.22,-5.56
0.818,0.29,0.19,0.96,-0.05,0.66,-6.29
0.82,0.31,0.19,0.99,-2.34,2.92,-4.96
0.822,0.32,0.19,0.99,-2.4,0.37,-2.81
0.823,0.31,0.2,0.98,-1.39,-0.08,-2.05
0.825,0.32,0.2,0.98,-1.18,-0.72,-1.59
0.827,0.31,0.2,0.97,-0.31,0.49,-1.11
0.829,0.32,0.22,0.96,-1.01,1.3,0.14
0.831,0.32,0.21,0.93,0.09,3.54,1.83
0.832,0.31,0.22,0.95,-0.5,2.44,3.62
0.834,0.3,0.21,0.94,-0.35,5.62,4.81
0.836,0.28,0.21,0.94,-0.08,10.47,4.75
0.838,0.24,0.2,0.93,0.49,8.32,2.75
0.84,0.26,0.21,0.94,1.31,5.6,1.04
0.841,0.26,0.22,0.94,-0.21,3.65,-0.08
0.843,0.26,0.22,0.94,0.55,4.64,-0.9
0.845,0.27,0.22,0.94,3.56,3.08,-0.69
0.847,0.27,0.23,0.99,1.11,5.36,-0.14
0.848,0.27,0.23,0.96,-0.79,4.84,0.84
0.85,0.26,0.22,0.97,0.02,0.02,0.37
0.852,0.25,0.22,0.95,-0.64,-0.82,-0.41
0.854,0.26,0.22,0.95,1.83,0.44,-1.37
0.856,0.25,0.21,0.96,0.95,1.3,-1.89
0.857,0.26,0.21,0.96,1.31,-1.53,-2.21
0.86,0.25,0.22,0.97,0.35,-4.6,-2.87
0.862,0.26,0.23,0.98,-1.15,-2.6,-3.6
0.864,0.26,0.21,0.96,-0.76,-3.82,-4.05
0.866,0.28,0.22,0.97,-0.6,-2.02,-4.02
0.867,0.28,0.21,0.96,-0.95,-0.79,-3.65
0.869,0.28,0.21,0.95,-0.35,-2.34,-2.99
0.871,0.28,0.22,0.99,-2.56,-0.75,-2.98
0.873,0.27,0.21,0.96,-3.45,-1.42,-3.3
0.875,0.27,0.21,0.97,-4.0,-1.92,-3.56
0.877,0.28,0.21,0.97,-4.66,-0.99,-3.21
0.879,0.29,0.21,0.94,-3.37,-2.03,-3.11
0.881,0.3,0.22,0.96,-2.85,0.66,-2.18
0.882,0.28,0.21,0.94,-2.67,1.79,-1.34
0.884,0.27,0.21,0.94,-1.08,1.19,-0.9
0.886,0.26,0.21,0.94,-0.09,1.24,-1.82
0.888,0.26,0.22,0.95,-1.98,-1.73,-2.58
0.89,0.27,0.22,0.95,-0.31,-1.44,-2.2
0.891,0.28,0.22,0.98,-1.8,-1.15,-2.31
0.893,0.27,0.21,0.96,-2.18,-2.14,-2.52
0.895,0.27,0.21,0.94,-0.4,-3.85,-2.47
0.897,0.28,0.22,0.96,-1.44,-2.82,-2.32
0.898,0.28,0.22,0.95,-1.48,-0.76,-2.18
0.901,0.27,0.22,0.96,-0.34,0.09,-2.58
0.903,0.28,0.22,0.96,-0.56,-1.02,-3.36
0.904,0.28,0.22,0.95,-0.23,-2.87,-3.08
0.906,0.28,0.22,0.95,-0.12,-1.77,-2.89
0.908,0.29,0.22,0.96,-0.64,0.5,-1.51
0.91,0.28,0.22,0.97,-1.89,1.89,-1.25
0.912,0.27,0.22,0.97,-2.6,-0.35,-1.5
0.913,0.27,0.22,0.97,-2.26,-2.18,-2.55
0.915,0.27,0.21,0.95,-1.95,-2.11,-3.01
0.917,0.28,0.21,0.97,-2.03,-0.26,-2.47
0.919,0.28,0.21,0.96,-1.22,0.6,-1.92
0.921,0.29,0.23,0.98,-3.07,-0.53,-1.37
0.923,0.28,0.22,0.97,-4.41,0.63,-1.01
0.924,0.26,0.22,0.98,-5.68,-0.76,-1.76
0.926,0.26,0.22,0.95,-7.73,-2.7,-2.73
0.928,0.28,0.21,0.9,-3.89,-3.97,-3.56
0.93,0.29,0.21,0.93,-0.63,-1.92,-3.34
0.932,0.28,0.21,0.96,0.29,1.92,-2.35
0.934,0.28,0.22,0.97,-3.1,1.57,-1.91
0.936,0.28,0.21,0.94,-2.81,0.06,-1.91
0.937,0.26,0.21,0.95,-2.95,-4.2,-2.95
0.939,0.28,0.21,0.94,-1.02,-2.12,-3.22
0.941,0.29,0.22,0.95,-1.21,-1.91,-3.34
0.943,0.29,0.22,0.94,-0.7,1.37,-2.4
0.944,0.28,0.22,0.97,-1.94,1.44,-1.19
0.946,0.28,0.22,0.94,-1.31,-0.69,-1.05
0.948,0.27,0.22,0.97,-1.71,-2.05,-0.7
0.95,0.27,0.21,0.97,-3.05,-1.28,-1.1
0.952,0.27,0.2,0.95,-1.92,-0.49,-1.6
0.954,0.26,0.21,0.96,-1.3,-2.21,-2.15
0.956,0.27,0.21,0.96,-0.52,-1.68,-2.5
0.957,0.29,0.21,0.97,-1.01,0.44,-2.29
0.959,0.28,0.21,0.96,-0.79,0.67,-2.29
0.961,0.27,0.2,0.96,-1.39,-1.18,-2.89
0.963,0.27,0.21,0.97,-1.86,-1.97,-3.77
0.964,0.27,0.21,0.97,-1.79,-2.64,-4.11
0.966,0.3,0.21,0.95,-1.98,-2.58,-3.95
0.968,0.31,0.22,0.97,-2.4,-2.09,-3.15
0.97,0.3,0.22,0.95,-2.44,-1.98,-1.88
0.972,0.29,0.21,0.94,-1.15,-1.34,-1.88
0.974,0.28,0.22,0.94,-0.26,-0.7,-1.56
0.975,0.29,0.22,0.95,-0.84,1.4,-1.01
0.977,0.28,0.22,0.95,-0.23,1.91,-0.92
0.98,0.28,0.22,0.96,0.14,0.46,-0.56
0.981,0.28,0.21,0.95,-0.38,-0.32,-0.52
0.983,0.27,0.21,0.95,-0.27,-1.83,-1.56
0.985,0.28,0.22,0.98,-1.34,-1.07,-1.77
0.987,0.28,0.22,0.97,-2.17,-0.89,-1.5
0.989,0.28,0.21,0.96,-0.89,-1.1,-1.37
0.99,0.26,0.22,0.97,-1.01,-2.0,-2.4
0.992,0.28,0.22,0.96,-0.26,-1.34,-2.7
0.994,0.28,0.22,0.96,-0.05,-0.29,-2.18
0.996,0.29,0.22,0.98,-0.84,1.28,-2.43
0.998,0.28,0.22,0.98,-2.27,-1.73,-2.44
1.0,0.28,0.21,0.95,-1.63,-3.18,-3.48
1.001,0.29,0.21,0.95,0.08,-3.4,-3.65
1.003,0.29,0.22,0.96,-0.35,-1.62,-3.62
1.005,0.3,0.21,0.95,0.6,0.7,-2.85
1.007,0.29,0.22,0.97,-1.05,0.21,-2.27
1.009,0.29,0.22,0.94,-2.09,-1.21,-2.31
1.011,0.29,0.22,0.96,-1.76,-0.85,-1.71
1.012,0.29,0.22,0.94,-2.09,-0.41,-1.54
1.014,0.28,0.22,0.94,-0.95,0.43,-0.69
1.016,0.28,0.22,0.96,-1.51,1.42,-0.92
1.018,0.26,0.21,0.94,-0.89,-0.6,-2.21
1.02,0.28,0.22,0.95,0.35,-2.18,-2.4
1.021,0.29,0.22,0.94,-0.66,-0.72,-2.32
1.023,0.29,0.22,0.98,-0.56,0.47,-1.65
1.025,0.27,0.22,0.95,-2.2,-0.17,-1.44
1.027,0.26,0.21,0.95,-1.79,-2.58,-2.9
1.029,0.26,0.22,0.93,-0.92,-4.52,-4.4
1.03,0.28,0.22,0.94,-0.2,-3.27,-4.89
1.032,0.29,0.23,0.97,-2.15,-0.06,-3.89
1.034,0.3,0.23,0.96,-2.27,1.07,-3.71
1.036,0.29,0.23,0.97,-2.7,-2.82,-3.05
1.038,0.3,0.22,0.95,-2.78,-2.87,-2.63
1.04,0.29,0.22,0.95,-1.68,-2.56,-2.34
1.042,0.29,0.22,0.93,0.14,-0.46,-2.23
1.043,0.29,0.23,0.98,-1.13,0.82,-1.94
1.045,0.28,0.22,0.95,-1.86,0.35,-2.46
1.047,0.29,0.22,0.95,-0.14,-2.29,-2.29
1.049,0.29,0.23,0.96,-0.37,-1.73,-2.44
1.05,0.29,0.22,0.95,-0.95,-1.13,-1.65
1.052,0.29,0.23,0.95,-0.85,-0.34,-1.24
1.054,0.29,0.23,0.95,-0.34,-1.1,-1.8
1.056,0.29,0.22,0.95,-0.11,-0.06,-1.88
1.058,0.28,0.22,0.95,-0.09,-0.21,-1.8
1.059,0.28,0.22,0.96,-0.6,-0.4,-2.43
1.061,0.29,0.24,0.95,-0.02,-0.9,-2.89
1.063,0.3,0.23,0.97,-1.6,-1.51,-2.35
1.065,0.29,0.23,0.95,-1.48,-0.82,-2.08
1.066,0.28,0.23,0.97,-2.31,-1.94,-2.23
1.068,0.28,0.22,0.94,-1.89,-1.89,-2.47
1.07,0.29,0.22,0.93,0.23,-1.25,-2.66
1.072,0.29,0.23,0.96,-1.28,0.64,-2.55
1.074,0.29,0.23,0.95,-1.47,0.53,-2.02
1.075,0.28,0.22,0.96,-2.49,-1.86,-2.61
1.077,0.29,0.23,0.93,-2.08,-3.54,-2.43
1.079,0.28,0.24,0.96,-0.64,-2.85,-2.37
1.081,0.29,0.23,0.93,-1.94,-0.78,-2.14
1.082,0.29,0.22,0.94,-0.93,0.63,-2.12
1.084,0.29,0.24,0.98,-2.53,-0.61,-2.18
1.086,0.29,0.22,0.94,-2.15,0.98,-2.73
1.088,0.28,0.22,0.96,-1.3,-4.02,-3.04
1.09,0.28,0.22,0.95,-1.28,-3.33,-3.28
1.091,0.28,0.21,0.92,0.96,-3.59,-4.0
1.093,0.3,0.24,0.98,-1.39,-3.36,-3.5
1.095,0.3,0.22,0.93,-1.34,-1.65,-2.78
1.097,0.29,0.22,0.94,0.92,-1.86,-3.28
1.098,0.31,0.23,0.95,0.61,-0.81,-2.98
1.1,0.3,0.23,0.95,1.31,0.58,-2.6
1.102,0.29,0.23,0.98,-0.63,-0.87,-2.61
1.104,0.32,0.23,0.94,-1.98,0.64,-2.14
1.106,0.31,0.22,0.94,0.44,-0.17,-0.95
1.108,0.32,0.24,0.97,-1.8,-0.2,-0.4
1.109,0.3,0.22,0.94,-1.15,1.95,-0.23
1.111,0.28,0.22,0.93,1.48,-1.01,-1.21
1.113,0.29,0.24,0.95,1.63,1.79,-1.5
1.114,0.29,0.23,0.93,2.24,2.26,-1.13
1.116,0.3,0.25,0.98,0.05,2.85,0.26
1.118,0.29,0.24,0.95,0.82,2.81,0.79
1.12,0.28,0.25,0.97,0.44,0.82,0.29
1.122,0.29,0.24,0.94,1.07,-0.87,-0.24
1.123,0.29,0.24,0.95,-0.06,-1.3,-0.98
1.125,0.27,0.24,0.93,0.5,-0.08,-1.36
1.127,0.29,0.24,0.93,1.83,0.37,-2.05
1.129,0.29,0.25,0.95,1.11,2.29,-1.18
1.13,0.28,0.24,0.96,1.44,1.95,-1.88
1.132,0.29,0.24,0.95,0.53,-0.08,-2.47
1.134,0.29,0.23,0.95,2.05,-1.28,-2.79
1.136,0.29,0.24,0.97,1.88,-0.29,-2.79
1.138,0.3,0.24,0.96,2.05,0.58,-1.95
1.139,0.28,0.24,0.97,0.18,0.08,-1.89
1.141,0.29,0.24,0.94,-0.26,0.06,-2.15
1.143,0.29,0.25,0.96,-0.85,-2.64,-1.92
1.145,0.29,0.25,0.93,-0.55,-1.65,-2.61
1.147,0.31,0.25,0.96,-0.75,-0.34,-2.17
1.148,0.29,0.24,0.94,-0.52,1.95,-1.71
1.15,0.29,0.25,0.95,-0.53,0.87,-1.68
1.152,0.28,0.25,0.95,-0.63,1.57,-1.74
1.154,0.28,0.24,0.95,0.05,0.84,-1.42
1.156,0.28,0.25,0.96,-1.16,1.54,-1.22
1.158,0.27,0.25,0.95,-0.95,1.98,-2.43
1.159,0.27,0.25,0.95,-1.01,-0.55,-3.4
1.161,0.28,0.25,0.94,-1.15,-1.68,-4.06
1.163,0.28,0.25,0.94,-2.03,-1.28,-4.4
1.165,0.29,0.25,0.93,-1.16,-1.05,-4.55
1.167,0.29,0.26,0.95,-1.05,-0.56,-3.69
1.169,0.3,0.26,0.94,-1.8,-0.24,-3.01
1.171,0.29,0.26,0.94,-1.19,-0.34,-3.27
1.172,0.29,0.26,0.95,-1.44,-0.78,-3.33
1.174,0.3,0.26,0.95,-0.56,-0.26,-2.7
1.176,0.3,0.26,0.95,-0.24,0.14,-1.57
1.178,0.29,0.25,0.95,-0.82,2.41,-0.53
1.18,0.27,0.25,0.95,-0.56,1.73,-0.92
1.181,0.26,0.26,0.96,-0.24,0.92,-2.03
1.183,0.24,0.25,0.95,-1.04,-1.62,-4.29
1.185,0.27,0.26,0.95,-0.78,-2.7,-5.42
1.187,0.28,0.26,0.93,-1.18,-2.84,-4.76
1.189,0.29,0.26,0.94,-1.66,-3.25,-4.14
1.191,0.28,0.25,0.93,-0.6,-3.15,-3.97
1.193,0.29,0.27,0.95,-1.95,-3.69,-4.56
1.194,0.3,0.25,0.93,-0.17,-2.84,-4.49
1.196,0.29,0.26,0.95,0.31,-2.4,-3.91
1.198,0.3,0.26,0.96,0.12,-1.91,-3.8
1.2,0.3,0.26,0.95,-0.56,-2.03,-3.34
1.202,0.3,0.26,0.95,-0.52,-2.06,-2.66
1.204,0.29,0.26,0.95,-0.41,-3.01,-2.31
1.205,0.3,0.26,0.97,-0.81,-1.39,-2.21
1.207,0.28,0.27,0.97,-2.43,-1.77,-2.32
1.209,0.29,0.26,0.94,-3.22,-3.02,-2.7
1.211,0.29,0.25,0.93,-1.54,-3.47,-2.73
1.212,0.29,0.26,0.94,-2.15,-2.2,-2.29
1.214,0.28,0.27,0.95,-2.27,-0.41,-1.89
1.216,0.26,0.26,0.94,-2.26,-1.85,-2.92
1.218,0.28,0.25,0.94,-1.4,-4.09,-4.67
1.22,0.3,0.26,0.94,-1.16,-3.3,-4.5
1.221,0.3,0.26,0.94,-0.44,-3.53,-4.11
1.223,0.31,0.26,0.94,0.15,-2.52,-3.22
1.225,0.3,0.26,0.95,-1.13,-0.26,-2.52
1.227,0.29,0.26,0.95,-1.56,-1.69,-3.1
1.229,0.3,0.25,0.94,-0.81,-3.28,-3.45
1.23,0.3,0.26,0.93,-0.72,-3.89,-4.09
1.232,0.31,0.26,0.94,0.61,-3.01,-3.47
1.234,0.31,0.27,0.95,-1.34,-1.6,-2.98
1.236,0.31,0.26,0.94,-2.15,-0.15,-2.38
1.238,0.3,0.26,0.94,-1.04,-2.34,-2.09
1.24,0.31,0.26,0.92,0.26,-2.92,-1.86
1.242,0.31,0.27,0.95,0.58,-0.44,-1.56
1.244,0.3,0.26,0.94,-0.76,1.3,-1.36
1.246,0.3,0.27,0.94,0.09,1.83,-1.36
1.247,0.29,0.26,0.95,0.02,-1.16,-1.77
1.249,0.3,0.26,0.95,0.96,-0.43,-1.83
1.251,0.29,0.26,0.97,-0.98,-1.45,-2.08
1.253,0.31,0.27,0.95,-2.2,-0.96,-2.23
1.255,0.31,0.26,0.95,-1.65,-0.06,-1.36
1.257,0.29,0.26,0.95,-2.23,0.66,-1.11
1.258,0.3,0.26,0.94,-0.47,1.36,-1.79
1.26,0.29,0.27,0.96,-1.08,0.93,-1.97
1.262,0.3,0.27,0.95,-1.97,2.52,-1.68
1.264,0.29,0.27,0.96,-3.01,1.37,-2.15
1.266,0.27,0.26,0.95,-3.34,-0.7,-2.95
1.268,0.28,0.26,0.94,-2.79,-2.24,-4.53
1.269,0.28,0.27,0.92,-2.27,-2.29,-5.24
1.271,0.29,0.27,0.92,-2.2,-0.93,-5.83
1.273,0.32,0.27,0.9,-2.12,-0.79,-4.85
1.275,0.33,0.26,0.92,-0.82,-0.2,-3.19
1.276,0.32,0.26,0.92,-0.98,-1.08,-1.33
1.278,0.3,0.26,0.91,0.09,-1.5,-1.88
1.28,0.31,0.27,0.93,1.4,-0.9,-1.63
1.282,0.31,0.27,0.94,2.08,0.96,-1.69
1.284,0.31,0.29,0.97,0.9,1.63,-1.15
1.286,0.3,0.28,0.94,1.04,0.76,-0.34
1.288,0.29,0.28,0.96,0.38,-1.92,-0.43
1.289,0.29,0.27,0.94,0.02,-1.66,-0.14
1.291,0.29,0.27,0.94,0.26,-0.67,0.26
1.293,0.27,0.26,0.96,-1.21,0.46,0.03
1.295,0.25,0.26,0.95,-1.15,0.29,-1.86
1.297,0.27,0.27,0.96,-2.95,-2.64,-4.03
1.298,0.28,0.26,0.95,-2.49,-3.47,-5.69
1.3,0.3,0.27,0.93,-2.55,-5.1,-5.83
1.303,0.32,0.28,0.93,-3.39,-3.51,-4.5
1.305,0.31,0.28,0.93,-3.05,-1.05,-3.69
1.307,0.32,0.27,0.93,-3.21,-0.17,-3.11
1.312,0.31,0.27,0.92,-2.17,-1.94,-2.64
1.319,0.32,0.27,0.93,-2.96,-1.22,-2.69
1.321,0.31,0.27,0.93,-2.55,-0.17,-1.98
1.324,0.31,0.27,0.94,-2.85,0.58,-1.18
1.326,0.3,0.26,0.92,-3.02,0.81,-1.51
1.328,0.3,0.27,0.94,-1.21,-0.67,-1.63
1.33,0.31,0.26,0.92,0.37,-0.78,-1.42
1.332,0.31,0.27,0.95,-0.09,0.21,-0.78
1.334,0.29,0.27,0.93,-0.93,-0.05,-0.03
1.336,0.28,0.26,0.93,0.4,-1.56,-1.56
1.337,0.3,0.28,0.96,0.34,-0.69,-2.6
1.339,0.31,0.28,0.95,-0.81,0.5,-1.59
1.341,0.3,0.28,0.97,-2.4,-0.99,-1.57
1.343,0.3,0.26,0.95,-2.12,-2.12,-1.95
1.345,0.29,0.26,0.93,-0.96,-3.69,-2.53
1.347,0.3,0.26,0.93,-0.61,-2.46,-1.79
1.349,0.29,0.26,0.95,-1.63,0.96,-1.83
1.351,0.3,0.27,0.94,-1.73,1.02,-2.52
1.353,0.31,0.28,0.95,-2.44,0.98,-3.01
1.354,0.32,0.28,0.94,-3.02,-0.41,-2.4
1.356,0.31,0.27,0.92,-2.24,-1.73,-1.25
1.358,0.3,0.27,0.91,-0.15,-0.31,-1.15
1.36,0.3,0.27,0.92,0.66,0.99,-1.24
1.362,0.29,0.28,0.93,0.18,1.25,-1.27
1.364,0.29,0.28,0.94,-1.02,1.05,-1.59
1.366,0.28,0.27,0.93,-0.02,-0.92,-1.94
1.368,0.3,0.28,0.95,-1.34,-3.02,-2.08
1.369,0.3,0.27,0.92,-1.66,-2.32,-2.15
1.371,0.3,0.27,0.93,-1.27,-2.4,-2.32
1.373,0.3,0.27,0.94,-1.42,-0.9,-2.67
1.375,0.3,0.27,0.95,-2.08,-1.85,-3.44
1.377,0.31,0.27,0.94,-1.74,-1.94,-3.37
1.379,0.31,0.27,0.93,-1.45,-1.54,-3.37
1.381,0.32,0.28,0.94,-1.53,-0.64,-2.21
1.383,0.32,0.28,0.93,-2.32,0.69,-1.27
1.385,0.3,0.27,0.93,-1.69,0.66,-1.73
1.387,0.31,0.28,0.94,-2.26,0.12,-1.11
1.388,0.31,0.27,0.93,-2.0,1.5,-1.02
1.39,0.29,0.27,0.93,-1.08,0.2,-1.01
1.392,0.3,0.26,0.92,-0.2,1.21,-1.18
1.394,0.3,0.28,0.94,-1.57,1.22,-1.11
1.396,0.29,0.27,0.95,-0.5,0.67,-1.62
1.398,0.29,0.27,0.95,-1.16,-0.37,-2.44
1.4,0.3,0.28,0.93,-1.79,-0.75,-1.97
1.402,0.29,0.27,0.93,-0.95,-0.44,-1.88
1.404,0.29,0.28,0.93,-1.31,-1.71,-2.41
1.406,0.28,0.28,0.92,-0.93,-2.06,-3.48
1.408,0.3,0.28,0.94,-1.36,-2.38,-4.15
1.41,0.32,0.28,0.94,-0.69,-0.81,-3.39
1.412,0.31,0.28,0.96,-2.29,-1.01,-2.46
1.413,0.3,0.26,0.93,-1.91,-1.47,-2.46
1.415,0.3,0.27,0.93,-0.43,-2.0,-2.34
1.417,0.3,0.27,0.94,-0.69,-1.21,-2.49
1.419,0.3,0.27,0.94,-2.08,0.27,-2.81
1.421,0.29,0.27,0.93,-2.55,-0.63,-3.73
1.422,0.31,0.28,0.94,-1.76,-1.36,-3.89
1.424,0.32,0.29,0.93,-3.02,-2.96,-2.47
1.426,0.31,0.27,0.91,-0.78,2.73,-2.0
1.428,0.29,0.27,0.92,-1.18,1.25,-1.83
1.43,0.3,0.28,0.93,-0.08,1.48,-2.21
1.431,0.3,0.28,0.93,-1.48,-0.5,-2.14
1.433,0.3,0.27,0.93,-0.95,1.05,-2.31
1.435,0.3,0.27,0.94,-0.82,0.09,-2.92
1.437,0.31,0.27,0.92,0.21,0.26,-2.56
1.438,0.31,0.27,0.93,0.4,-0.26,-2.63
1.44,0.32,0.28,0.94,-0.7,0.81,-1.56
1.442,0.31,0.27,0.93,-0.09,2.79,-1.4
1.444,0.31,0.27,0.93,0.6,2.12,-1.79
1.446,0.31,0.28,0.94,-0.26,1.59,-1.39
1.447,0.31,0.28,0.96,-0.64,2.85,-1.16
1.449,0.31,0.29,0.96,-1.28,2.44,-0.66
1.451,0.31,0.3,0.97,-2.23,2.17,-0.09
1.453,0.29,0.3,0.96,-4.05,-0.72,0.4
1.454,0.27,0.28,0.92,-3.92,-0.09,0.15
1.456,0.27,0.29,0.92,-3.44,-0.99,-0.47
1.458,0.27,0.28,0.91,-1.98,1.59,-1.18
1.46,0.26,0.27,0.91,-2.41,2.96,-1.88
1.461,0.27,0.27,0.92,-1.82,2.38,-3.48
1.463,0.28,0.27,0.95,-1.39,0.6,-4.21
1.465,0.3,0.28,0.94,-2.44,-1.21,-4.27
1.467,0.31,0.29,0.94,-3.54,-0.55,-2.96
1.469,0.3,0.28,0.93,-2.47,-0.84,-2.18
1.471,0.3,0.28,0.91,-1.16,-2.27,-2.06
1.472,0.3,0.28,0.91,0.44,-2.53,-1.79
1.474,0.31,0.28,0.92,1.05,0.52,-1.45
1.476,0.3,0.27,0.95,0.49,3.04,-0.56
1.478,0.28,0.27,0.96,-0.66,2.0,-1.01
1.48,0.28,0.26,0.94,0.06,-1.6,-1.8
1.481,0.28,0.26,0.95,-0.21,-3.65,-2.76
1.483,0.28,0.27,0.96,-2.43,-2.82,-3.97
1.485,0.29,0.28,0.95,-3.01,-1.97,-5.01
1.487,0.3,0.29,0.92,-2.89,-2.87,-4.93
1.489,0.31,0.29,0.93,-2.96,-3.36,-4.11
1.491,0.3,0.29,0.9,-1.44,-2.75,-3.34
1.493,0.3,0.29,0.91,-0.56,-2.23,-2.81
1.495,0.3,0.29,0.91,0.0,0.64,-2.34
1.496,0.3,0.29,0.92,-0.4,1.48,-2.21
1.498,0.29,0.28,0.91,1.57,0.96,-2.43
1.5,0.3,0.28,0.92,2.29,1.01,-1.31
1.502,0.3,0.27,0.94,2.12,2.15,-1.16
1.504,0.29,0.27,0.95,1.92,1.39,-1.57
1.505,0.29,0.28,0.95,0.93,-0.79,-3.39
1.507,0.3,0.27,0.95,-0.05,-1.47,-4.18
1.509,0.31,0.29,0.94,0.58,-1.83,-3.15
1.511,0.31,0.28,0.93,1.42,-2.46,-3.02
1.512,0.32,0.29,0.96,-0.35,-1.1,-2.53
1.514,0.32,0.29,0.96,-1.47,0.98,-1.24
1.516,0.3,0.29,0.94,-2.56,1.27,-1.24
1.518,0.29,0.3,0.96,-2.43,-0.72,-2.18
1.52,0.29,0.3,0.96,-3.24,-2.85,-2.26
1.522,0.28,0.3,0.93,-3.24,-1.88,-1.94
1.523,0.27,0.3,0.91,-4.06,-1.57,-1.31
1.525,0.26,0.29,0.93,-3.47,0.79,-1.57
1.527,0.26,0.29,0.93,-3.59,0.17,-1.86
1.529,0.24,0.28,0.94,-1.91,0.81,-2.58
1.531,0.25,0.27,0.95,-2.43,-1.85,-3.88
1.532,0.26,0.27,0.94,-2.27,-1.21,-5.5
1.534,0.26,0.28,0.96,-5.01,-8.29,-8.41
1.537,0.28,0.29,0.92,-5.07,-8.35,-10.15
1.538,0.32,0.29,0.93,-4.26,-9.24,-9.22
1.54,0.33,0.29,0.92,-5.89,-10.06,-8.43
1.542,0.32,0.28,0.91,-5.16,-8.84,-7.04
1.544,0.33,0.27,0.89,-1.53,-9.4,-7.22
1.545,0.35,0.29,0.93,-3.77,-8.21,-6.0
1.547,0.35,0.28,0.92,-4.03,-2.89,-4.4
1.549,0.32,0.26,0.93,-3.62,-2.89,-3.8
1.551,0.32,0.27,0.91,-2.67,-3.54,-4.95
1.552,0.33,0.28,0.94,-2.27,-5.68,-3.98
1.565,0.34,0.28,0.94,-3.63,-2.7,-2.32
1.571,0.33,0.28,0.97,-4.52,1.91,-1.22
1.574,0.32,0.27,0.98,-5.53,2.85,-0.46
1.577,0.32,0.28,1.0,-6.14,4.09,-0.49
1.579,0.31,0.28,1.0,-8.35,0.95,-1.48
1.582,0.31,0.28,0.99,-9.94,1.33,-1.34
1.584,0.3,0.27,0.94,-10.31,-0.35,-1.8
1.586,0.36,0.29,0.92,-12.06,2.46,0.95
1.588,0.34,0.28,0.9,-13.85,6.63,4.69
1.59,0.31,0.26,0.89,-12.73,8.98,6.7
1.592,0.27,0.24,0.91,-11.01,8.93,5.15
1.594,0.25,0.23,0.91,-8.9,7.48,3.44
1.595,0.24,0.23,0.93,-9.91,7.24,0.05
1.597,0.25,0.23,0.95,-11.48,5.16,-2.55
1.599,0.23,0.22,0.93,-12.84,0.96,-6.23
1.601,0.27,0.23,0.92,-10.81,-4.56,-8.44
1.603,0.31,0.23,0.89,-7.71,-3.88,-7.77
1.605,0.33,0.25,0.92,-5.05,-1.01,-4.93
1.607,0.32,0.25,0.92,-5.48,1.45,-2.26
1.609,0.3,0.23,0.91,-5.54,2.26,-0.98
1.611,0.29,0.21,0.9,-4.12,-1.45,-1.07
1.613,0.28,0.2,0.91,-3.77,-3.13,-1.37
1.614,0.28,0.2,0.89,-3.44,-2.46,-2.32
1.617,0.28,0.19,0.88,-2.11,-2.53,-3.4
1.619,0.28,0.21,0.88,-3.82,-3.98,-4.99
1.62,0.31,0.22,0.8,-0.05,-2.81,-3.34
1.623,0.3,0.23,0.81,1.16,0.66,-1.54
1.625,0.29,0.25,0.79,8.63,5.77,-0.2
1.626,0.33,0.27,0.85,16.4,8.53,0.44
1.628,0.38,0.3,0.91,15.48,22.32,2.98
1.63,0.4,0.33,1.02,6.56,33.25,8.52
1.632,0.36,0.31,1.05,7.13,30.64,17.47
1.634,0.3,0.27,1.02,10.5,18.79,21.13
1.636,0.27,0.27,1.07,9.66,12.12,21.15
1.638,0.23,0.25,1.05,5.4,8.69,19.02
1.64,0.23,0.25,1.02,1.77,5.74,15.97
1.642,0.23,0.26,1.0,-1.89,11.05,13.45
1.644,0.23,0.24,0.94,1.59,6.2,9.71
1.646,0.25,0.24,0.92,5.5,-9.02,8.47
1.648,0.25,0.26,0.92,10.08,3.63,7.97
1.65,0.27,0.29,1.03,-2.31,15.71,8.14
1.652,0.22,0.31,1.02,-9.13,6.18,7.33
1.654,0.23,0.25,0.96,-1.82,-2.5,3.18
1.656,0.26,0.27,0.9,-0.12,-6.26,-0.08
1.658,0.28,0.27,0.95,-0.31,0.49,2.11
1.659,0.28,0.27,0.97,0.26,3.16,3.53
1.661,0.28,0.27,0.94,-2.29,0.61,6.47
1.663,0.26,0.26,0.92,2.46,1.36,8.29
1.665,0.27,0.26,0.98,1.16,2.93,8.99
1.667,0.24,0.25,0.93,4.63,0.49,8.18
1.669,0.23,0.24,0.96,5.82,0.67,6.4
1.671,0.23,0.24,0.96,6.95,0.56,4.37
1.673,0.23,0.25,1.0,7.08,3.22,3.11
1.675,0.23,0.25,1.04,1.91,1.79,1.74
1.677,0.27,0.25,1.02,0.14,2.78,2.96
1.678,0.24,0.24,0.99,1.48,3.5,1.04
1.68,0.27,0.25,0.99,2.06,4.44,1.34
1.682,0.25,0.25,0.99,3.31,1.89,0.79
1.684,0.26,0.26,0.98,2.14,-0.7,1.37
1.686,0.26,0.27,1.02,-1.39,0.66,2.75
1.688,0.23,0.26,0.95,-3.31,10.37,0.85
1.69,0.2,0.26,0.97,-1.11,1.07,-1.27
1.692,0.22,0.26,0.92,0.85,-3.44,-4.58
1.693,0.27,0.27,0.95,0.84,-3.86,-5.11
1.695,0.3,0.28,0.96,-1.57,2.38,-3.51
1.697,0.27,0.27,0.94,-0.96,7.47,-0.63
1.699,0.26,0.26,0.94,-0.37,4.08,-0.21
1.701,0.21,0.26,0.96,0.84,5.77,-1.37
1.703,0.23,0.26,0.96,1.34,-0.27,-1.66
1.705,0.23,0.27,0.96,0.46,-0.03,-2.0
1.707,0.27,0.28,0.97,-1.33,1.91,-1.85
1.709,0.25,0.27,0.97,-3.44,3.95,-0.87
1.711,0.22,0.26,0.94,-1.77,4.76,-3.34
1.713,0.23,0.27,0.96,-0.9,-3.63,-2.96
1.715,0.22,0.26,0.93,-0.53,-5.77,-4.72
1.717,0.25,0.28,0.95,-2.41,-6.21,-3.68
1.719,0.25,0.27,0.93,-1.66,-5.53,-2.29
1.721,0.24,0.27,0.98,-2.78,-3.68,-1.85
1.722,0.25,0.26,0.95,-1.79,-4.11,-2.96
1.725,0.27,0.28,0.98,-2.24,-3.66,-4.2
1.727,0.27,0.27,0.94,-0.31,-1.08,-4.4
1.728,0.26,0.27,0.97,1.02,-0.89,-3.16
1.731,0.25,0.26,0.96,-0.24,1.33,-2.99
1.732,0.27,0.27,0.96,-0.37,5.25,-2.58
1.734,0.24,0.26,0.96,-2.82,6.03,-1.83
1.736,0.21,0.26,0.95,-3.48,1.28,-1.47
1.738,0.22,0.26,0.93,-2.31,-1.45,-4.84
1.74,0.22,0.27,0.93,-1.22,-7.74,-5.07
1.742,0.26,0.29,0.94,-0.66,-10.26,-4.98
1.744,0.26,0.29,0.95,-1.5,-6.24,-4.23
1.746,0.28,0.29,0.93,-1.97,-8.43,-3.04
1.748,0.29,0.29,0.95,-2.05,-4.06,-2.38
1.75,0.28,0.29,0.94,-1.95,-0.99,-1.5
1.751,0.27,0.27,0.93,-1.51,0.23,-1.3
1.753,0.25,0.28,0.96,-1.44,-3.19,-2.63
1.755,0.26,0.27,0.92,-0.37,-1.05,-2.34
1.757,0.25,0.27,0.93,0.23,1.88,-2.03
1.759,0.23,0.27,0.97,1.83,3.98,-2.73
1.76,0.24,0.26,0.97,-2.15,-3.25,-3.02
1.763,0.25,0.25,0.97,-1.53,-3.68,-2.89
1.765,0.25,0.26,0.94,0.09,-2.29,-3.36
1.766,0.26,0.26,0.95,-0.64,-3.4,-4.03
1.768,0.28,0.27,0.97,0.0,-1.28,-3.85
1.77,0.24,0.26,0.95,-0.63,-0.7,-2.95
1.772,0.27,0.27,0.95,1.1,0.76,-2.9
1.774,0.27,0.28,0.95,0.37,-0.99,-2.84
1.775,0.27,0.29,0.97,-1.13,-1.47,-2.55
1.777,0.28,0.29,0.96,0.31,3.77,-2.84
1.779,0.28,0.29,0.99,1.79,7.88,-2.4
1.781,0.28,0.32,1.06,4.61,-6.38,1.69
1.782,0.29,0.36,1.17,1.83,19.94,3.86
1.784,0.27,0.33,1.2,6.11,39.63,6.56
1.786,0.24,0.33,1.28,0.47,21.62,8.82
1.788,0.44,0.39,1.4,7.54,2.66,23.45
1.789,0.34,0.39,1.38,-0.5,1.94,46.72
1.791,0.18,0.29,1.42,-23.76,1.39,57.48
1.794,0.16,0.2,1.32,-49.05,-9.68,42.21
1.796,0.22,0.21,1.15,-42.2,-14.79,31.18
1.798,0.25,0.23,1.22,-37.3,-24.43,31.02
1.8,0.3,0.17,1.13,-41.92,3.48,20.37
1.802,0.32,0.19,1.16,-54.12,20.17,19.88
1.803,0.38,0.19,1.06,-67.16,16.44,21.86
1.805,0.43,0.23,1.01,-54.38,41.05,31.37
1.807,0.25,0.27,1.2,-44.7,54.56,36.17
1.809,0.21,0.19,1.1,-36.73,84.73,26.89
1.811,0.18,0.14,1.02,-30.38,70.46,18.99
1.812,0.2,0.11,1.01,-17.08,42.52,17.54
1.814,0.24,0.12,1.06,-21.77,32.79,16.64
1.816,0.19,0.11,0.96,-16.72,32.08,19.94
1.818,0.17,0.03,0.86,4.02,27.08,15.62
1.82,0.19,0.08,0.81,26.81,40.41,15.19
1.822,0.16,0.07,0.88,42.52,73.66,19.91
1.824,0.07,0.1,1.06,28.73,82.9,13.83
1.825,0.06,0.2,1.16,4.49,73.77,7.69
1.827,0.1,0.22,1.12,-23.27,55.04,10.21
1.829,0.03,0.13,1.1,-32.24,50.6,13.82
1.831,0.01,0.06,1.0,-35.89,14.43,13.31
1.833,-0.0,0.03,0.97,-22.81,-10.11,13.63
1.835,-0.06,-0.0,0.94,3.27,-21.47,10.87
1.836,-0.1,0.06,1.11,-7.47,-17.33,-1.19
1.838,0.09,0.08,0.98,-32.23,15.88,-3.21
1.84,0.1,0.04,0.87,-34.03,17.56,-2.81
1.842,0.06,0.0,0.8,-7.68,6.43,0.72
1.844,-0.0,-0.07,0.9,17.63,-17.94,-12.32
1.846,0.01,-0.01,1.07,14.85,12.73,-26.67
1.848,-0.13,0.16,1.16,-15.76,27.18,-27.22
1.849,0.04,0.15,0.87,0.06,16.41,-19.05
1.851,0.01,0.22,1.06,19.34,-17.5,-4.96
1.854,0.04,0.14,0.96,29.73,-31.15,1.24
1.855,0.01,0.12,0.91,52.12,-51.8,-1.25
1.857,0.1,0.16,0.95,47.19,-37.07,-0.73
1.859,0.14,0.18,1.06,-1.16,5.6,9.16
1.861,0.06,0.16,0.99,-32.14,28.53,9.59
1.863,-0.01,0.08,0.94,-32.64,35.19,1.94
1.864,-0.01,0.08,0.91,-29.65,-3.5,-1.79
1.866,0.01,0.01,0.88,-11.74,-14.38,-2.87
1.868,0.01,-0.02,0.85,13.21,-23.08,-1.33
1.87,0.05,0.04,0.96,9.6,4.79,2.38
1.872,0.12,0.16,1.09,-9.57,31.57,5.57
1.874,0.16,0.22,1.07,-37.28,57.05,8.99
1.875,0.05,0.17,0.97,-38.03,31.62,6.95
1.877,-0.02,0.09,1.04,-34.32,-6.53,3.04
1.879,-0.07,0.02,1.06,-37.47,-20.96,1.39
1.881,-0.08,-0.03,0.94,-26.98,-33.86,-1.33
1.882,0.02,-0.02,0.86,-10.37,-21.98,-1.48
1.884,-0.02,-0.0,0.97,-4.26,-15.59,-4.53
1.886,0.06,0.05,1.04,-12.47,8.58,-6.7
1.888,0.11,0.08,1.1,-26.03,26.84,-1.82
1.89,0.12,0.03,0.87,-29.19,16.82,-1.01
1.892,0.06,0.0,0.98,-27.07,-18.84,1.16
1.893,0.01,-0.02,0.97,-18.37,-32.96,6.18
1.895,-0.06,-0.05,0.93,-6.0,-34.15,2.98
1.897,-0.11,-0.04,0.93,8.08,-42.69,-5.98
1.899,0.03,0.0,1.05,-7.57,7.42,-20.82
1.901,0.13,0.01,0.94,-19.37,48.05,-30.92
1.903,0.13,0.07,0.97,-30.18,27.18,-31.13
1.904,0.1,0.06,0.97,-31.54,9.98,-21.83
1.906,0.08,0.04,0.92,-23.94,-6.67,-14.9
1.908,0.08,-0.0,0.94,-17.79,-7.89,-8.44
1.91,0.05,-0.01,0.93,-8.31,-0.14,-3.04
1.911,0.06,-0.05,0.91,1.59,14.41,1.05
1.913,0.03,0.0,1.03,-0.37,18.64,5.34
1.915,-0.02,0.01,1.07,-9.02,28.63,4.53
1.917,-0.01,0.01,1.08,-18.63,23.02,-1.57
1.919,-0.0,-0.0,1.06,-22.66,11.05,-4.12
1.921,-0.0,-0.01,1.01,-21.62,-1.04,-4.99
1.923,0.03,-0.03,0.98,-16.29,-6.67,3.37
1.924,-0.02,-0.04,1.02,-17.19,-6.56,5.82
1.926,-0.01,-0.05,0.99,-19.65,-5.89,3.47
1.928,0.02,-0.07,1.04,-24.15,-4.93,3.62
1.93,-0.02,-0.1,1.01,-26.98,-2.53,7.74
1.932,-0.04,-0.13,0.98,-20.24,-18.93,7.53
1.934,-0.04,-0.13,0.96,-15.34,-13.11,5.16
1.936,-0.06,-0.13,0.94,-12.75,-8.26,1.08
1.938,-0.03,-0.13,0.94,-8.17,-3.39,-3.28
1.94,-0.01,-0.14,0.95,-10.6,3.5,-6.82
1.941,0.01,-0.15,0.9,-9.77,3.79,-5.68
1.943,-0.04,-0.14,0.95,-2.23,-9.34,-8.21
1.945,0.0,-0.14,0.89,4.05,-11.56,-6.03
1.947,-0.01,-0.12,0.92,10.44,-9.4,-0.84
1.948,0.01,-0.13,0.97,10.09,-3.97,2.02
1.95,-0.03,-0.14,0.95,5.47,3.4,-0.53
1.952,-0.05,-0.14,0.95,5.1,-7.57,-11.37
1.96,-0.01,-0.12,0.96,4.08,-12.47,-19.04
1.979,0.06,-0.1,0.96,4.87,-6.92,-17.45
2.003,0.06,-0.09,0.96,8.14,-6.75,-8.95
2.021,0.05,-0.1,0.99,6.58,-9.18,-2.17
2.041,0.02,-0.09,1.0,2.92,-8.21,1.42
2.06,-0.02,-0.11,1.0,-1.95,-13.66,-4.67
2.08,0.01,-0.12,1.01,-5.59,-16.2,-12.43
2.103,0.03,-0.11,0.95,-6.84,-16.72,-17.66
2.121,0.06,-0.11,0.97,-3.85,-24.9,-15.97
2.141,0.08,-0.11,0.96,-2.27,-21.98,-13.95
2.163,0.08,-0.1,1.0,-0.82,-19.48,-13.5
2.182,0.08,-0.08,1.01,-2.81,-4.31,-8.95
2.202,0.02,-0.09,1.04,-5.47,-2.9,-7.57
2.224,-0.0,-0.09,1.05,-8.0,-5.19,-15.05
2.243,0.08,-0.09,1.01,-11.82,-2.5,-21.28
2.262,0.14,-0.06,0.99,-17.57,0.43,-21.95
2.281,0.18,-0.07,0.99,-15.02,6.08,-15.45
2.301,0.2,-0.08,0.95,-9.89,11.07,-4.09
2.32,0.09,-0.1,1.02,-4.46,13.73,8.55
2.341,0.03,-0.12,1.03,-5.3,8.98,8.17
2.361,0.04,-0.15,0.99,-6.06,-0.43,1.65
2.381,0.04,-0.15,1.01,-7.79,-6.93,-3.83
2.401,0.03,-0.14,1.01,-15.16,2.18,-10.6
2.421,0.04,-0.16,0.95,-14.15,-4.49,-18.44
2.44,0.05,-0.14,0.94,-12.5,-3.68,-25.53
2.463,0.08,-0.14,0.96,-7.22,1.4,-24.43
2.482,0.07,-0.11,1.01,-4.67,2.52,-18.58
2.502,0.02,-0.1,1.03,-7.63,-1.97,-14.87
2.53,0.0,-0.13,1.03,-10.55,-18.75,-22.29
2.544,0.1,-0.11,0.98,-18.58,-9.37,-32.2
2.563,0.13,-0.11,0.97,-16.08,-16.09,-37.5
2.582,0.2,-0.04,0.98,-11.56,-7.89,-29.48
2.6,0.11,-0.04,1.1,-13.45,-10.34,-14.99
2.624,0.15,-0.04,1.1,-21.95,-9.11,-3.15
2.641,0.11,-0.08,1.07,-31.71,-28.0,4.47
2.661,0.12,-0.16,1.0,-34.95,-56.18,7.22
2.681,0.15,-0.18,0.87,-30.81,-45.86,6.34
2.701,0.17,-0.17,0.88,-22.85,-35.85,2.66
2.721,0.2,-0.17,0.96,-18.85,-17.02,6.23
2.741,0.17,-0.23,0.98,-22.5,2.4,9.74
2.761,0.14,-0.25,0.93,-22.46,-8.63,8.95
2.78,0.14,-0.24,0.93,-24.99,-25.01,8.18
2.801,0.11,-0.26,0.95,-30.61,-27.63,9.73
2.821,0.09,-0.29,0.98,-36.23,-8.56,2.05
2.84,0.1,-0.28,1.0,-49.76,-7.25,-11.54
2.863,0.24,-0.37,0.95,-75.97,-4.79,-22.76
2.882,0.23,-0.3,0.95,-101.6,-6.63,-20.05
2.902,0.35,-0.39,0.88,-135.92,4.18,-9.3
2.921,0.27,-0.48,0.78,-133.88,10.06,-0.93
2.941,0.17,-0.35,0.85,-142.43,1.24,-1.25
2.961,0.17,-0.41,0.9,-116.7,-16.18,-0.64
2.984,0.12,-0.47,0.87,-100.73,-28.38,-5.88
3.003,0.15,-0.54,0.9,-89.4,-28.27,-14.76
3.021,0.12,-0.61,0.75,-57.66,-49.98,-26.72
3.041,0.44,-0.45,0.64,-110.34,-24.09,-17.86
3.063,0.32,-0.55,0.65,-81.45,-34.35,3.25
3.081,0.31,-0.58,0.71,-51.95,-35.73,7.25
3.101,0.25,-0.56,0.74,-21.13,-5.71,-0.75
3.121,0.27,-0.63,0.69,0.55,-14.02,-3.97
3.141,0.3,-0.66,0.64,3.95,-9.82,-1.27
3.161,0.23,-0.66,0.67,3.16,-15.73,3.21
3.181,0.26,-0.64,0.83,-15.16,-0.2,2.02
3.201,0.26,-0.64,0.79,-28.44,12.2,-3.28
3.221,0.28,-0.64,0.7,-37.16,8.75,-1.74
3.241,0.25,-0.7,0.68,-36.43,1.33,1.53
3.261,0.23,-0.62,0.73,-46.99,13.4,-2.99
3.281,0.22,-0.67,0.8,-46.44,37.1,-6.81
3.301,0.28,-0.64,0.7,-63.18,50.44,-7.59
3.321,0.24,-0.7,0.65,-61.73,9.11,5.37
3.341,0.17,-0.73,0.73,-59.37,-11.54,17.02
3.36,0.09,-0.72,0.69,-58.03,-19.73,17.01
3.383,0.07,-0.72,0.62,-51.11,-28.75,6.32
3.401,0.23,-0.71,0.75,-76.02,11.05,-6.53
3.421,0.23,-0.75,0.64,-85.53,5.47,-1.01
3.441,0.18,-0.78,0.5,-64.58,-25.59,7.42
3.461,0.21,-0.79,0.5,-60.58,-29.51,5.08
3.481,0.27,-0.86,0.32,-41.91,-22.85,5.53
3.501,0.18,-0.84,0.38,-17.25,-32.52,3.68
3.521,0.19,-0.83,0.36,5.98,-34.38,-2.87
3.54,0.29,-0.83,0.45,19.37,-13.21,-8.7
3.561,0.3,-0.8,0.55,26.87,35.24,-4.41
3.581,0.23,-0.77,0.72,31.39,37.16,-1.45
3.603,0.2,-0.7,0.69,54.58,29.82,-15.74
3.62,0.16,-0.75,0.52,11.69,5.48,-15.34
3.639,0.22,-0.78,0.38,23.15,5.47,-21.8
3.663,0.28,-0.81,0.34,33.98,-22.89,-5.44
3.681,0.27,-0.79,0.4,32.2,-17.36,7.53
3.701,0.15,-0.76,0.51,19.86,-3.8,8.95
3.721,0.11,-0.81,0.54,12.7,7.8,4.24
3.741,0.06,-0.86,0.62,33.25,-17.86,-4.78
3.761,0.19,-0.76,0.61,40.64,-18.05,-11.54
3.781,0.24,-0.71,0.63,51.69,-19.62,-7.77
3.801,0.25,-0.66,0.92,29.24,11.34,-11.83
3.821,0.26,-0.7,0.84,4.73,11.34,-7.02
3.841,0.25,-0.69,0.75,-0.58,-24.0,5.91
3.86,0.21,-0.7,0.67,-1.21,-43.57,12.95
3.881,0.21,-0.79,0.59,6.58,-39.1,7.53
3.901,0.24,-0.75,0.59,12.55,0.93,-8.95
3.92,0.23,-0.73,0.73,11.63,19.33,-19.16
3.941,0.25,-0.68,0.75,5.89,20.11,-24.12
3.961,0.3,-0.67,0.72,0.81,14.99,-22.05
3.983,0.31,-0.71,0.69,3.77,-1.76,-13.98
