timestamp,acce_x,acce_y,acce_z,gyro_x,gyro_y,gyro_z
0.003,0.11,-0.05,1.11,-1.24,4.29,-7.79
0.011,0.1,-0.07,1.06,-8.29,6.0,-3.25
0.017,0.04,-0.04,1.03,-10.2,7.1,-1.69
0.022,0.03,-0.13,1.01,-1.42,-4.2,-6.98
0.027,0.02,-0.12,1.0,4.87,-6.2,-8.73
0.031,0.08,-0.09,1.03,6.21,-3.6,-7.53
0.035,0.04,-0.09,1.07,7.37,-6.2,-5.89
0.038,0.09,-0.08,1.07,2.85,-8.44,-4.14
0.042,0.07,-0.09,1.06,-5.33,2.06,-3.69
0.045,0.1,-0.09,1.04,-11.98,3.65,-4.93
0.047,0.06,-0.11,1.0,-9.6,4.82,-1.33
0.05,0.06,-0.12,0.95,0.14,-8.24,-4.06
0.051,0.08,-0.11,0.94,8.63,-5.91,0.11
0.054,0.0,-0.09,1.03,9.59,-10.09,-5.31
0.056,0.11,-0.08,0.97,6.64,-0.18,-3.22
0.058,0.02,-0.07,1.04,5.66,3.86,-1.63
0.064,0.03,-0.06,1.09,1.71,0.09,-7.53
0.066,0.05,-0.06,1.08,0.82,-3.71,-0.27
0.068,0.0,-0.07,1.05,-4.44,-1.18,1.74
0.07,-0.01,-0.1,1.0,-3.47,-9.44,1.39
0.072,-0.06,-0.08,0.98,-3.37,-5.85,3.07
0.075,-0.1,-0.1,1.02,-1.05,-14.12,-3.94
0.077,-0.05,-0.1,0.99,-0.14,-11.79,-2.73
0.079,-0.04,-0.12,1.02,-3.88,-10.93,-2.41
0.081,-0.07,-0.11,0.98,-0.29,-14.95,-2.29
0.084,-0.1,-0.11,0.96,9.34,-25.77,-7.73
0.086,-0.04,-0.07,0.96,6.47,-23.31,-7.25
0.088,-0.04,-0.08,0.98,4.9,-21.3,-11.04
0.09,0.01,-0.1,0.94,6.03,-22.93,-9.62
0.092,-0.0,-0.12,0.91,9.19,-22.2,-9.54
0.094,-0.03,-0.11,0.9,13.88,-13.19,-11.51
0.096,-0.1,-0.11,0.92,21.53,-13.65,-23.85
0.098,-0.07,-0.07,0.99,27.77,-18.67,-33.13
0.1,0.01,-0.05,1.03,31.3,-20.44,-38.66
0.102,0.09,0.01,1.03,27.08,-21.79,-29.69
0.104,0.07,0.05,1.01,28.15,-28.79,-23.56
0.106,0.12,0.16,0.99,23.11,-26.37,-18.4
0.108,0.08,0.15,1.04,20.08,-23.27,-14.72
0.11,0.15,0.08,1.06,28.7,-29.07,-17.86
0.112,0.17,0.11,1.06,17.05,-26.85,-12.08
0.114,0.15,0.08,1.11,6.53,-34.31,-16.7
0.116,0.29,0.12,1.02,-8.38,-23.97,-7.63
0.118,0.27,0.01,1.01,-13.92,-20.67,-15.24
0.12,0.36,0.01,0.97,-20.03,-5.5,-13.98
0.122,0.35,0.02,0.94,-18.84,6.11,-10.08
0.124,0.4,-0.03,0.91,-8.0,5.42,-7.08
0.126,0.32,-0.09,0.96,-2.64,-13.5,-18.49
0.128,0.47,-0.09,1.0,0.93,-16.49,-25.92
0.13,0.52,-0.01,1.02,-5.98,7.57,-24.06
0.132,0.52,0.02,1.05,-16.79,32.73,-21.11
0.134,0.54,0.05,0.95,-18.18,45.37,-11.31
0.136,0.45,0.12,1.01,-16.35,39.56,-1.53
0.138,0.22,0.13,1.08,-12.29,14.15,-6.67
0.14,0.23,0.1,1.12,-14.14,13.66,-6.72
0.142,0.23,0.11,1.08,-18.34,11.45,-3.37
0.145,0.2,0.12,1.03,-15.01,8.96,5.11
0.146,0.14,0.1,1.05,-9.44,13.53,11.82
0.148,0.09,0.09,1.07,-5.16,9.07,22.46
0.15,-0.01,0.08,0.99,-5.88,1.39,23.74
0.152,-0.06,0.02,0.97,-4.6,-10.5,18.31
0.154,-0.04,-0.01,0.91,-2.14,-46.21,2.47
0.156,0.16,-0.11,0.93,1.5,-49.57,5.59
0.159,0.19,-0.11,0.92,-7.1,-42.03,-2.55
0.161,0.25,-0.06,0.92,-12.5,-21.3,-4.98
0.162,0.31,-0.1,0.91,-7.59,-16.35,0.44
0.164,0.44,-0.17,0.87,-9.6,-12.9,6.02
0.166,0.38,-0.16,0.92,-2.44,-13.62,5.65
0.168,0.36,-0.2,0.94,8.72,-30.15,-11.21
0.17,0.56,-0.15,0.84,-2.6,-17.77,-16.11
0.171,0.58,-0.19,0.82,-0.92,8.12,-16.92
0.173,0.61,-0.14,0.87,12.72,11.3,-14.06
0.175,0.55,-0.05,0.93,18.72,5.48,-11.97
0.177,0.6,0.03,0.97,16.34,17.62,-10.89
0.179,0.62,0.09,1.02,9.42,24.99,-0.63
0.181,0.51,0.08,1.08,10.06,26.99,12.14
0.183,0.44,0.04,1.1,8.64,24.2,16.38
0.185,0.42,0.03,1.08,-1.4,26.44,19.57
0.187,0.38,-0.08,1.03,-8.05,22.55,22.4
0.189,0.41,-0.11,0.99,-3.08,15.54,26.17
0.191,0.42,-0.13,0.98,4.87,15.94,32.79
0.193,0.33,-0.13,1.01,4.7,24.4,30.26
0.194,0.34,-0.17,1.0,0.85,26.89,27.02
0.196,0.3,-0.14,0.99,-2.05,25.88,29.27
0.198,0.17,-0.17,0.98,2.41,27.91,27.98
0.2,0.1,-0.15,1.02,4.11,19.98,21.8
0.202,0.12,-0.09,1.02,-2.29,24.37,13.86
0.204,0.15,-0.07,0.97,-3.83,30.15,14.64
0.206,0.16,-0.07,0.99,-0.09,31.73,22.73
0.208,0.08,-0.05,0.99,8.18,22.63,30.34
0.21,-0.04,-0.07,1.05,11.05,2.7,25.95
0.212,-0.09,-0.07,1.1,5.86,-16.21,9.92
0.213,0.03,-0.06,1.09,-7.74,-12.61,0.73
0.215,0.08,-0.09,1.06,-19.19,-21.13,0.76
0.217,0.13,-0.1,0.99,-12.93,-25.62,6.64
0.219,0.06,-0.01,1.0,-10.24,-12.32,4.43
0.221,0.01,-0.07,1.06,-19.48,-9.97,-5.85
0.223,0.09,-0.08,1.04,-17.13,-14.75,-7.95
0.225,0.22,-0.1,1.0,-13.76,-18.66,-4.27
0.227,0.29,-0.08,1.06,0.69,-19.25,4.17
0.228,0.44,0.08,1.3,-43.45,-99.56,-1.48
0.23,0.06,-0.03,1.19,-55.76,-24.49,-3.39
0.232,0.24,-0.05,1.09,-67.63,5.56,-1.42
0.234,0.23,-0.05,0.91,-64.78,8.27,11.94
0.236,0.19,-0.08,0.88,-40.99,5.59,6.75
0.238,0.26,-0.03,0.95,-29.21,-40.24,17.77
0.24,0.14,-0.02,0.85,-12.38,-56.05,25.53
0.242,0.21,0.02,1.02,-8.12,-66.69,27.3
0.244,0.11,-0.08,1.01,-12.61,-52.32,20.21
0.246,0.2,-0.07,1.03,-28.69,-44.18,13.28
0.247,0.31,-0.04,1.01,-53.11,-46.08,12.2
0.249,0.26,-0.02,1.03,-61.22,-32.98,26.06
0.251,0.19,-0.05,1.07,-60.85,-24.53,36.84
0.253,0.06,-0.16,1.06,-65.89,-41.15,37.31
0.255,0.18,-0.14,0.84,-54.81,-20.85,50.79
0.257,0.05,-0.26,0.9,-50.31,-9.24,55.4
0.259,0.14,-0.24,0.8,-39.37,7.91,61.98
0.261,-0.02,-0.32,0.83,-31.02,23.98,72.21
0.262,0.07,-0.34,0.68,-31.13,14.37,67.73
0.264,-0.03,-0.39,0.73,-18.52,-1.07,65.94
0.266,-0.07,-0.46,0.58,11.98,-32.58,39.36
0.268,0.19,-0.44,0.63,41.34,-34.37,27.89
0.27,0.1,-0.44,0.76,70.03,-24.41,23.47
0.272,0.05,-0.49,0.98,78.12,-33.47,0.12
0.274,0.31,-0.43,0.9,55.88,-33.86,-16.66
0.276,0.43,-0.38,0.86,36.05,2.2,1.42
0.278,0.15,-0.44,1.08,36.08,-3.65,-15.47
0.28,0.27,-0.37,1.06,45.56,-2.52,-30.46
0.281,0.48,-0.29,1.04,44.78,-13.88,-20.43
0.283,0.39,-0.21,1.1,38.12,-10.11,-1.08
0.285,0.26,-0.17,1.09,39.83,-21.54,-6.52
0.287,0.38,-0.11,1.07,36.44,-15.57,-4.06
0.289,0.38,-0.12,1.07,34.79,-8.76,-5.01
0.291,0.43,-0.15,1.09,20.64,13.53,3.01
0.293,0.43,-0.16,1.14,7.76,23.1,9.37
0.295,0.39,-0.12,1.06,-13.5,8.58,14.66
0.296,0.35,-0.19,1.0,-19.04,-2.69,8.41
0.298,0.4,-0.19,0.92,-21.45,0.87,4.67
0.3,0.39,-0.2,0.91,-16.08,4.24,0.37
0.302,0.41,-0.16,0.88,-18.53,10.27,0.69
0.304,0.38,-0.16,0.9,-24.23,13.89,4.47
0.305,0.26,-0.16,0.91,-22.87,11.53,-0.29
0.307,0.31,-0.15,0.86,-16.67,11.36,-1.39
0.309,0.29,-0.14,0.84,-12.9,12.03,-1.15
0.311,0.27,-0.16,0.84,-8.32,15.18,-2.72
0.313,0.21,-0.21,0.91,-4.41,19.19,-7.31
0.315,0.12,-0.21,0.97,-2.21,8.41,-13.18
0.317,0.26,-0.19,0.92,-1.8,9.34,-13.44
0.319,0.19,-0.17,0.95,-7.1,-0.14,-16.6
0.321,0.23,-0.21,0.95,-1.16,5.25,-19.19
0.322,0.23,-0.21,1.0,1.02,3.1,-23.33
0.324,0.25,-0.23,1.05,5.48,0.47,-26.72
0.326,0.34,-0.23,1.1,2.98,2.2,-23.39
0.328,0.33,-0.21,1.12,-2.09,0.75,-19.57
0.33,0.28,-0.2,1.14,-7.28,-1.56,-18.24
0.332,0.33,-0.2,1.12,-9.33,-0.95,-16.98
0.334,0.34,-0.19,1.05,-10.81,-2.26,-11.56
0.335,0.31,-0.18,1.01,-13.97,-1.6,-9.1
0.337,0.29,-0.2,0.98,-12.87,-4.85,-8.93
0.339,0.26,-0.2,0.92,-16.92,-15.74,-14.26
0.341,0.37,-0.14,0.87,-18.29,-9.98,-9.39
0.343,0.32,-0.2,0.84,-14.52,2.02,-5.57
0.345,0.3,-0.21,0.85,-9.71,10.34,-6.23
0.347,0.37,-0.21,0.86,-0.99,12.49,-5.19
0.349,0.27,-0.2,0.91,5.51,2.72,-5.92
0.351,0.31,-0.22,1.0,5.98,-1.25,-8.43
0.353,0.37,-0.2,1.02,-1.42,-0.73,-5.1
0.355,0.39,-0.16,1.03,-10.15,2.43,-0.18
0.357,0.47,-0.16,1.04,-9.18,10.6,15.69
0.359,0.29,-0.22,1.01,-15.05,11.8,24.11
0.361,0.18,-0.33,1.07,-1.88,17.07,8.64
0.362,0.27,-0.38,1.09,3.24,5.74,-6.85
0.364,0.35,-0.25,1.08,-3.71,-0.05,-0.24
0.366,0.29,-0.3,1.08,-8.81,-9.44,3.37
0.368,0.23,-0.3,1.05,-4.99,-14.93,-1.86
0.37,0.28,-0.28,0.97,-13.71,-17.44,-5.56
0.372,0.28,-0.22,0.98,-17.02,-6.85,1.69
0.374,0.17,-0.23,0.94,-19.68,8.03,4.46
0.376,0.16,-0.18,0.96,-26.17,22.09,6.5
0.378,0.14,-0.17,0.94,-21.92,21.16,6.32
0.38,0.07,-0.18,0.93,-16.66,1.54,-0.27
0.382,-0.05,-0.17,0.84,-5.3,-9.56,-15.3
0.383,0.02,-0.2,0.85,2.89,-7.13,-24.11
0.385,0.03,-0.23,0.83,5.04,-0.82,-35.05
0.398,0.18,-0.23,0.85,9.25,16.84,-30.9
0.416,0.13,-0.24,0.92,10.69,28.08,-22.5
0.436,0.01,-0.23,0.99,12.92,22.31,-27.31
0.458,0.02,-0.27,1.02,12.05,9.3,-38.05
0.479,-0.02,-0.24,1.14,4.9,3.56,-51.62
0.495,0.15,-0.21,1.08,-3.16,6.03,-59.27
0.518,0.17,-0.15,1.1,-16.32,13.65,-50.63
0.536,0.22,-0.14,1.05,-15.27,11.13,-45.56
0.559,0.34,-0.15,1.01,-6.27,19.02,-29.39
0.578,0.27,-0.16,1.05,-2.26,27.56,-11.57
0.596,0.09,-0.19,1.08,-2.78,31.42,-8.89
0.619,0.02,-0.21,1.1,-4.89,23.82,-22.24
0.638,0.05,-0.23,1.02,-8.56,21.68,-36.67
0.656,0.16,-0.21,0.99,-10.11,23.69,-43.11
0.679,0.14,-0.22,1.0,-8.18,10.56,-51.21
0.697,0.23,-0.19,0.99,-5.86,17.18,-43.59
0.716,0.24,-0.18,0.96,-3.63,16.64,-39.5
0.739,0.19,-0.2,0.94,-0.56,7.44,-43.62
0.758,0.23,-0.21,0.96,9.48,16.67,-40.34
0.776,0.22,-0.17,1.05,11.1,6.23,-41.37
0.801,0.24,-0.14,1.02,1.3,15.21,-36.96
0.818,0.21,-0.17,0.99,-16.7,20.26,-42.08
0.836,0.2,-0.12,0.98,-23.11,30.6,-41.76
0.859,0.21,-0.13,1.02,-15.68,29.11,-41.37
0.877,0.14,-0.12,1.04,-11.3,23.47,-39.22
0.896,0.18,-0.15,1.05,-7.07,15.6,-38.9
0.918,0.22,-0.16,1.03,-0.73,8.64,-37.4
0.937,0.24,-0.16,1.01,2.09,7.97,-31.05
0.956,0.22,-0.14,0.98,-0.69,11.13,-22.2
0.979,0.16,-0.23,0.97,-0.17,10.18,-20.14
0.997,0.03,-0.24,0.99,-6.67,-4.09,-32.72
1.015,0.04,-0.25,1.01,-11.92,-8.23,-46.14
1.038,0.11,-0.21,0.96,-18.18,-10.85,-49.18
1.057,0.1,-0.24,0.97,-13.18,-12.31,-49.22
1.076,0.16,-0.24,0.96,-6.41,-15.13,-48.0
1.098,0.17,-0.19,0.96,-6.4,-20.09,-49.37
1.116,0.22,-0.16,0.98,-6.55,-22.75,-44.08
1.139,0.2,-0.18,0.93,3.05,-18.55,-34.55
1.158,0.14,-0.22,0.92,21.07,-16.23,-38.82
1.176,0.11,-0.23,1.06,23.92,-31.04,-54.37
1.199,0.23,-0.16,1.09,19.07,-37.54,-59.3
1.217,0.21,-0.21,1.05,-5.5,-41.04,-60.15
1.236,0.33,-0.21,0.95,-9.37,-22.93,-58.08
1.258,0.31,-0.13,0.91,-11.34,-9.11,-50.47
1.277,0.29,-0.12,0.94,-4.7,-10.17,-50.72
1.296,0.28,-0.13,1.0,0.46,-10.06,-45.18
1.318,0.33,-0.1,0.93,-7.56,-9.74,-37.88
1.336,0.35,-0.13,0.91,-11.22,-10.73,-35.59
1.355,0.29,-0.18,0.96,-10.55,-10.5,-37.3
1.377,0.31,-0.14,0.98,-13.22,-11.5,-37.73
1.396,0.28,-0.15,0.97,-14.09,-30.03,-42.0
1.419,0.28,-0.16,0.93,-16.63,-32.76,-48.35
1.437,0.28,-0.13,0.93,-9.89,-33.25,-56.99
1.456,0.31,-0.07,0.89,-5.16,-21.74,-58.34
1.478,0.33,-0.12,0.9,0.64,-24.96,-62.17
1.497,0.39,-0.1,0.9,1.36,-27.42,-62.81
1.516,0.42,-0.09,0.95,-2.93,-32.63,-60.98
1.538,0.47,-0.08,0.93,-5.86,-46.6,-59.89
1.557,0.52,-0.1,0.85,-7.68,-48.37,-58.84
1.575,0.58,-0.05,0.84,-2.81,-45.18,-61.25
1.598,0.72,-0.02,0.89,-1.86,-21.42,-40.73
1.616,0.67,-0.03,0.93,-9.19,-7.04,-20.14
1.639,0.55,-0.03,0.92,-17.91,-14.32,-16.76
1.657,0.59,-0.02,0.76,-17.42,-4.9,-23.86
1.676,0.48,-0.06,0.82,-8.46,-4.41,-31.51
1.699,0.56,-0.05,0.76,-3.88,7.69,-34.27
1.717,0.58,-0.07,0.75,3.63,15.57,-31.89
1.736,0.52,-0.07,0.8,4.17,31.95,-33.68
1.759,0.48,-0.05,0.88,4.73,52.26,-43.3
1.777,0.45,-0.04,0.89,2.17,50.79,-55.68
1.796,0.49,-0.02,0.91,0.84,49.63,-53.15
1.825,0.53,0.02,0.88,4.7,56.6,-44.37
1.838,0.59,0.05,0.88,3.28,75.86,-27.71
1.856,0.47,0.02,0.96,0.26,96.81,-11.31
1.879,0.37,0.01,0.92,-2.67,81.92,-15.8
1.898,0.27,-0.0,0.99,7.94,52.75,-22.26
1.917,0.23,-0.02,1.12,7.44,24.6,-29.13
1.939,0.25,0.03,1.09,-8.82,14.31,-39.4
1.958,0.19,0.02,1.02,-18.9,10.7,-45.04
1.976,0.19,0.02,1.0,-27.57,-0.76,-53.92
1.999,0.15,0.04,0.97,-30.63,-27.92,-65.63
2.017,0.15,0.01,0.93,-19.02,-51.83,-78.92
2.036,0.24,-0.01,0.99,-31.36,-73.51,-88.87
2.059,0.37,0.0,0.85,-42.7,-90.41,-92.58
2.077,0.56,0.1,0.76,-32.76,-87.39,-91.27
2.096,0.67,0.13,0.77,-15.53,-77.68,-80.46
2.118,0.76,0.12,0.8,3.13,-56.93,-52.29
2.137,0.66,0.08,0.88,1.54,-35.76,-40.27
2.156,0.55,0.07,0.87,-2.05,-19.3,-44.81
2.178,0.57,0.07,0.88,1.8,-3.31,-49.01
2.197,0.62,0.09,0.92,-4.5,7.74,-47.05
2.215,0.63,0.07,0.9,2.18,6.46,-38.26
2.239,0.73,0.09,0.81,2.55,9.4,-29.24
2.257,0.83,0.1,0.73,9.47,32.43,-2.08
2.276,0.69,0.09,0.76,15.66,59.97,11.83
2.299,0.49,0.06,0.87,17.44,82.26,2.02
2.318,0.46,0.06,1.0,14.21,64.84,-13.08
2.336,0.55,0.06,1.06,8.37,38.87,-13.01
2.355,0.54,0.09,1.03,0.7,13.86,-4.05
2.378,0.44,0.09,1.01,-10.49,5.62,-4.79
2.397,0.37,0.08,1.0,-9.24,-3.89,-20.15
2.416,0.35,0.05,1.07,-5.76,-22.64,-31.62
2.438,0.37,0.05,1.09,-6.73,-55.05,-44.52
2.457,0.51,0.12,1.0,-19.88,-76.92,-44.12
2.476,0.6,0.12,0.87,-16.67,-59.01,-17.37
2.498,0.49,0.04,0.93,-12.96,-51.04,-4.95
2.517,0.4,0.01,0.99,-11.91,-30.93,-6.37
2.536,0.44,0.03,0.92,-15.95,-26.15,-11.48
2.558,0.54,0.05,0.77,-22.7,-13.51,-8.11
2.576,0.51,0.03,0.63,-11.27,31.19,-4.98
2.599,0.49,0.03,0.79,0.72,82.56,-5.59
2.618,0.46,0.07,0.96,1.36,82.53,-7.27
2.637,0.46,0.08,1.01,-1.71,60.79,-2.06
2.656,0.45,0.08,1.05,-13.19,59.8,8.63
2.678,0.34,0.06,1.04,-20.47,38.03,9.77
2.697,0.26,0.0,1.03,-24.93,21.54,-1.1
2.716,0.28,-0.01,1.0,-35.11,24.4,-13.45
2.738,0.37,-0.0,0.91,-33.22,11.24,-16.24
2.757,0.39,-0.01,0.86,-17.05,3.97,-9.59
2.775,0.35,-0.02,0.9,-6.0,-4.53,-2.29
2.798,0.31,-0.05,0.86,-0.67,0.43,-11.8
2.817,0.33,-0.03,0.92,-4.99,21.83,-22.67
2.836,0.4,0.01,0.91,-3.59,18.34,-23.01
2.858,0.37,-0.01,0.96,1.91,8.09,-20.72
2.877,0.4,0.03,0.96,-1.77,4.58,-14.82
2.896,0.34,0.02,1.02,-2.08,1.65,-13.83
2.918,0.36,0.04,1.03,-8.78,-4.95,-10.06
2.937,0.37,0.0,0.94,-14.78,-5.42,-5.91
2.957,0.34,-0.02,0.92,-11.48,4.11,-4.03
2.978,0.34,-0.05,0.9,-5.16,1.76,-6.52
2.998,0.36,-0.05,0.93,0.44,-3.97,-8.63
3.016,0.34,-0.01,0.94,0.38,0.9,-6.47
3.039,0.28,-0.02,0.98,-2.08,7.16,-13.57
3.058,0.35,-0.02,1.0,-8.52,14.69,-14.76
3.076,0.34,-0.01,0.98,-11.6,25.13,-13.45
3.099,0.36,0.0,0.96,-5.63,18.24,-6.96
3.118,0.33,-0.01,1.01,-0.73,11.21,-5.73
3.136,0.33,-0.01,0.99,-2.78,15.24,-4.5
3.159,0.32,-0.02,1.01,-6.09,8.72,-3.66
3.177,0.3,0.0,0.95,-10.61,12.87,-5.4
3.196,0.31,-0.01,0.97,-8.58,24.78,-12.32
3.219,0.3,-0.01,1.04,-7.34,14.12,-9.57
3.238,0.3,-0.01,0.99,-6.26,5.48,-4.4
3.256,0.28,-0.02,0.96,-2.12,-6.15,-6.37
3.279,0.32,0.01,0.94,-6.4,20.34,-8.85
3.298,0.34,0.02,1.02,-10.78,27.16,-1.65
3.316,0.3,-0.01,0.99,-11.11,8.35,1.25
3.339,0.23,-0.04,0.98,-6.14,-8.9,2.52
3.358,0.2,-0.07,0.96,-3.25,-12.98,-2.35
3.376,0.2,-0.08,0.89,-0.46,5.97,-10.14
3.394,0.22,-0.05,0.96,-1.24,28.26,-16.87
3.418,0.28,-0.02,0.94,1.89,22.24,-13.56
3.436,0.26,-0.0,0.99,12.27,4.32,-9.1
3.455,0.29,-0.02,0.95,13.34,-2.24,-3.1
3.478,0.29,0.01,0.99,12.87,-7.45,2.29
3.497,0.48,0.12,1.17,0.32,-1.53,31.85
3.515,0.33,0.0,1.08,-0.63,-18.46,20.92
3.538,0.33,-0.03,0.99,-12.52,6.14,10.2
3.557,0.3,-0.03,0.93,-10.73,4.29,1.92
3.576,0.28,-0.03,0.96,-5.5,15.91,0.79
3.598,0.27,-0.02,0.96,1.66,12.53,2.89
3.617,0.22,-0.02,1.0,1.08,1.44,4.05
3.635,0.16,-0.04,1.01,-8.08,11.21,-1.79
3.659,0.21,-0.06,0.92,-14.72,18.38,-1.48
3.677,0.14,-0.11,1.12,-6.85,29.22,3.25
3.696,0.21,0.01,1.14,-12.2,5.51,1.83
3.719,0.2,0.02,1.06,-15.4,3.21,2.06
3.738,0.18,-0.02,1.03,-9.15,-4.76,4.75
3.757,0.28,-0.04,0.95,-3.31,-6.67,9.27
3.775,0.2,-0.03,0.92,-10.4,8.84,8.26
3.798,0.19,-0.03,1.02,-8.75,13.07,7.88
3.817,0.22,-0.03,1.03,-12.23,4.34,7.85
3.836,0.22,-0.04,1.01,-4.7,-10.81,7.36
3.858,0.2,-0.07,1.01,-3.6,-9.85,6.52
3.877,0.22,-0.08,0.97,-5.28,-5.13,5.39
3.895,0.24,-0.06,0.99,-5.07,-0.02,3.89
3.919,0.24,-0.06,0.98,1.37,-9.11,2.87
3.938,0.21,-0.06,1.01,3.47,-21.05,0.35
3.956,0.23,-0.05,1.02,4.49,-19.59,0.96
3.979,0.23,-0.04,1.0,2.47,-16.89,1.76
