timestamp,acce_x,acce_y,acce_z,gyro_x,gyro_y,gyro_z
0.006,0.3,-0.46,0.83,-1.3,2.6,-6.44
0.014,0.39,-0.5,0.83,-3.73,-8.96,-9.68
0.023,0.37,-0.5,0.81,-0.44,2.53,-9.08
0.03,0.33,-0.45,0.86,3.22,8.72,-4.63
0.035,0.26,-0.44,0.85,4.9,3.73,1.37
0.04,0.3,-0.5,0.8,0.78,-4.38,0.98
0.046,0.37,-0.52,0.82,-0.55,-5.83,-6.5
0.051,0.34,-0.47,0.91,2.79,0.21,-7.19
0.055,0.28,-0.44,0.86,-3.88,11.68,-1.37
0.059,0.34,-0.48,0.85,-8.03,1.69,-2.52
0.064,0.37,-0.5,0.8,-8.64,-10.08,-3.31
0.069,0.34,-0.52,0.8,-7.82,-1.34,-2.29
0.073,0.29,-0.48,0.84,1.66,-4.56,1.4
0.077,0.3,-0.47,0.81,3.31,-5.63,2.06
0.082,0.33,-0.51,0.81,2.93,-6.44,-1.24
0.086,0.33,-0.47,0.83,4.17,-1.33,-5.16
0.091,0.3,-0.45,0.86,6.14,4.52,-4.61
0.095,0.32,-0.46,0.87,7.82,-1.57,-3.28
0.098,0.34,-0.47,0.86,4.08,3.5,-3.98
0.1,0.32,-0.46,0.87,3.08,3.71,-3.42
0.102,0.3,-0.45,0.81,-2.23,4.09,-2.02
0.103,0.3,-0.49,0.82,-3.01,-4.73,-1.69
0.105,0.33,-0.48,0.82,0.95,-8.99,-2.4
0.107,0.3,-0.45,0.81,3.01,0.63,-3.89
0.109,0.32,-0.45,0.81,5.8,1.69,-4.79
0.111,0.33,-0.45,0.79,5.36,-1.05,-5.65
0.113,0.33,-0.44,0.77,7.44,-3.28,-4.95
0.115,0.32,-0.4,0.83,15.34,-1.56,-5.15
0.117,0.34,-0.39,0.81,18.55,-3.6,-4.79
0.119,0.33,-0.3,0.85,23.11,-2.34,-2.56
0.12,0.36,-0.37,0.8,26.09,-14.5,1.83
0.122,0.32,-0.34,0.82,30.18,-3.37,4.37
0.124,0.29,-0.3,0.83,26.35,-2.35,10.37
0.126,0.27,-0.35,0.75,29.21,-1.15,14.37
0.128,0.2,-0.33,0.76,38.0,0.63,14.7
0.13,0.13,-0.32,0.8,39.21,5.69,7.56
0.132,0.24,-0.31,0.85,38.27,10.03,-12.69
0.134,0.25,-0.32,0.94,45.01,26.38,-13.27
0.135,0.23,-0.26,0.89,37.79,32.4,-6.53
0.137,0.26,-0.2,0.84,14.67,34.41,-1.95
0.139,0.28,-0.19,0.76,-5.8,14.26,0.55
0.141,0.16,-0.32,0.72,-16.0,11.65,2.09
0.143,0.08,-0.29,0.8,-5.19,14.29,-4.27
0.144,0.27,-0.17,0.8,2.85,20.93,-22.58
0.146,0.26,-0.15,0.77,-9.6,48.21,-21.77
0.149,0.2,-0.25,0.7,-24.4,41.45,-2.82
0.15,0.12,-0.34,0.71,-15.65,17.86,6.81
0.152,0.08,-0.3,0.78,-7.16,3.88,11.94
0.154,0.11,-0.21,0.73,-6.98,22.34,14.0
0.156,0.09,-0.32,0.66,-15.74,28.95,17.11
0.158,0.09,-0.39,0.83,-3.66,7.54,25.44
0.16,0.15,-0.34,0.93,21.86,-17.15,28.92
0.162,0.11,-0.25,0.87,10.56,4.23,36.93
0.163,0.02,-0.39,0.63,-16.73,18.63,43.13
0.166,0.04,-0.54,0.7,-18.46,-15.53,27.13
0.168,0.09,-0.45,0.86,20.64,-28.96,-4.5
0.169,0.06,-0.32,0.85,30.2,15.83,-14.69
0.171,0.01,-0.26,1.0,31.82,32.2,-1.05
0.173,0.09,-0.34,0.9,14.17,2.31,8.05
0.175,0.36,-0.47,0.79,10.61,-46.31,-0.31
0.177,0.48,-0.39,0.72,35.92,-80.9,-1.57
0.178,0.32,-0.35,0.85,46.38,-44.12,7.57
0.18,0.03,-0.28,0.99,24.12,-41.68,22.46
0.183,-0.02,-0.26,1.02,-11.13,30.34,-8.05
0.185,0.29,-0.16,0.71,-34.4,20.7,-50.49
0.187,0.32,-0.14,0.68,-7.25,16.76,-57.15
0.189,0.33,-0.25,0.96,13.98,-18.46,-23.86
0.191,0.48,-0.28,0.97,21.3,-19.07,-14.34
0.193,0.5,-0.2,0.92,26.73,-23.8,-8.78
0.194,0.28,-0.27,0.82,20.44,-14.37,7.65
0.196,0.23,-0.46,0.69,-1.73,-21.92,14.32
0.198,0.32,-0.36,0.89,-11.59,-37.37,-14.12
0.2,0.35,-0.24,0.95,-22.11,0.35,-41.3
0.202,0.25,-0.32,0.81,-37.31,46.7,-37.74
0.204,0.07,-0.57,0.64,-20.4,27.98,-13.37
0.206,0.32,-0.61,0.77,17.91,-14.82,-26.18
0.208,0.54,-0.43,0.92,41.36,-38.69,-48.87
0.21,0.34,-0.24,1.1,35.83,7.31,-34.58
0.212,0.21,-0.32,1.15,21.56,29.4,-12.79
0.213,0.36,-0.21,1.07,-2.84,16.47,-36.09
0.215,0.44,-0.16,1.03,-1.92,19.4,-67.68
0.217,0.44,-0.22,1.01,8.84,34.05,-67.65
0.219,0.26,-0.45,0.91,1.91,48.76,-35.16
0.221,0.19,-0.78,1.11,18.35,37.89,6.2
0.223,0.07,-0.8,0.94,31.95,22.31,21.76
0.225,0.28,-0.35,0.92,-10.84,98.44,-26.75
0.226,0.65,0.31,1.35,-31.54,89.15,-65.44
0.228,0.12,0.23,1.23,-16.35,50.67,13.98
0.23,-0.24,-0.17,1.0,-5.34,27.95,46.58
0.232,-0.02,-0.56,0.86,53.18,-90.24,36.7
0.234,0.44,-0.04,1.05,67.69,-42.47,-30.38
0.236,0.76,0.42,1.55,50.6,27.94,-76.96
0.238,0.57,0.28,1.37,37.98,41.89,-35.8
0.239,0.35,-0.1,1.25,37.13,10.23,-2.95
0.241,0.2,-0.26,1.02,10.78,-46.26,9.42
0.243,0.16,-0.27,0.86,-1.95,-58.47,8.6
0.245,0.11,-0.21,0.85,-10.81,-45.62,0.49
0.247,0.13,-0.08,0.85,-3.47,-29.91,-7.54
0.249,0.33,-0.01,0.85,15.48,-14.35,-18.21
0.251,0.27,-0.02,1.18,45.24,6.58,-23.45
0.253,0.45,-0.04,1.18,41.42,-18.49,-19.01
0.255,0.32,-0.06,1.07,-2.08,-8.5,-9.08
0.256,0.13,-0.07,1.09,3.6,-15.91,8.12
0.258,0.02,-0.16,1.17,8.11,-33.22,11.02
0.26,0.19,-0.1,0.93,-2.92,-44.21,-8.21
0.262,0.39,0.03,0.89,-5.28,-43.57,-30.98
0.264,0.49,0.03,0.93,16.34,-27.3,-31.1
0.266,0.57,-0.01,0.87,42.31,-34.44,1.24
0.268,0.44,-0.01,1.04,37.76,1.92,14.27
0.27,0.12,-0.06,1.11,42.21,38.18,27.82
0.272,-0.03,-0.06,1.08,54.93,31.44,24.43
0.274,0.26,0.04,1.3,75.45,-23.44,2.0
0.276,0.47,0.08,1.19,59.37,-22.15,-22.56
0.277,0.44,0.06,1.23,42.5,-6.89,-14.7
0.279,0.29,0.0,1.24,35.85,11.57,2.34
0.281,0.2,-0.01,1.24,29.59,5.88,9.16
0.283,0.37,0.04,1.13,25.08,-35.86,3.56
0.285,0.4,0.09,1.35,33.28,-21.92,-3.89
0.287,0.7,0.1,0.98,22.37,-0.23,-7.19
0.289,0.37,0.07,1.19,8.79,-19.15,6.46
0.29,0.23,0.02,1.14,4.89,17.59,9.73
0.292,0.19,0.0,1.07,-0.18,25.59,-0.63
0.294,0.26,0.02,1.0,2.34,-2.34,-13.86
0.296,0.42,0.11,1.13,4.5,-16.08,-22.27
0.298,0.44,0.1,1.04,-0.73,-13.36,-15.08
0.3,0.38,0.08,0.99,-14.82,-2.81,-3.07
0.302,0.27,0.03,0.97,-10.9,21.1,5.31
0.304,0.31,0.06,1.08,-10.34,19.19,5.22
0.305,0.3,0.05,1.15,-12.11,15.16,1.01
0.307,0.39,0.08,1.12,-22.0,27.97,-11.66
0.309,0.38,0.09,1.06,-24.6,30.58,-12.66
0.311,0.4,0.07,1.0,-25.62,22.09,-8.72
0.313,0.33,0.02,0.92,-28.56,34.89,-1.1
0.315,0.25,0.0,0.89,-32.41,40.7,7.27
0.317,0.19,-0.0,0.88,-26.7,37.39,10.31
0.319,0.17,0.0,0.92,-19.66,43.16,7.57
0.32,0.11,-0.01,0.91,-8.95,29.74,7.34
0.322,0.16,-0.01,0.95,1.4,20.02,5.91
0.324,0.16,0.02,0.94,0.49,17.15,2.9
0.326,0.2,0.05,1.02,3.37,11.44,1.08
0.328,0.19,0.07,1.0,-3.22,12.27,2.81
0.329,0.17,0.05,1.0,-3.04,18.4,2.78
0.332,0.13,0.02,0.97,-3.62,14.03,7.89
0.334,0.12,0.01,0.95,0.41,2.2,5.79
0.335,0.12,0.02,0.99,3.57,-5.76,2.95
0.337,0.18,0.04,0.99,1.6,-7.57,-3.77
0.339,0.19,0.04,1.02,4.09,-9.6,-5.62
0.341,0.17,0.02,1.02,2.2,-7.69,-0.79
0.342,0.17,0.01,0.99,2.2,-9.63,-0.29
0.344,0.17,0.0,1.01,0.06,-10.87,1.05
0.346,0.19,0.02,0.97,1.05,-13.27,-1.11
0.348,0.21,0.03,1.01,2.58,-12.31,-4.27
0.35,0.24,0.03,1.01,5.53,-11.36,-4.99
0.352,0.22,0.03,0.99,2.72,-8.58,-1.25
0.354,0.2,0.02,1.03,5.44,-4.24,0.9
0.356,0.19,0.03,1.01,3.21,1.05,-0.79
0.357,0.19,0.02,1.0,4.87,3.8,-4.93
0.359,0.23,0.04,1.0,2.43,0.72,-8.15
0.361,0.23,0.04,1.0,-0.35,2.43,-6.98
0.363,0.22,0.04,1.0,1.53,2.24,-4.78
0.365,0.21,0.05,1.01,0.15,3.28,-3.71
0.367,0.22,0.04,0.99,-0.4,2.14,-3.05
0.368,0.21,0.04,0.99,0.05,5.45,-3.28
0.37,0.18,0.04,0.99,1.27,3.85,-1.86
0.372,0.19,0.05,0.98,1.48,4.26,-3.68
0.374,0.2,0.05,1.03,1.45,2.73,-4.6
0.376,0.19,0.03,1.02,-0.89,0.69,-3.45
0.377,0.2,0.04,1.03,-2.02,-2.63,-3.36
0.379,0.19,0.04,0.99,-1.69,0.15,-5.53
0.381,0.21,0.04,1.0,-3.62,-1.51,-5.66
0.383,0.23,0.05,1.0,-1.33,-7.04,-4.56
0.385,0.22,0.05,1.02,-0.18,-6.89,-1.24
0.387,0.22,0.04,1.01,-0.76,-3.08,1.27
0.388,0.21,0.04,0.99,0.03,-5.21,2.95
0.39,0.22,0.06,1.04,4.47,-8.0,3.22
0.392,0.22,0.05,1.03,7.53,-6.43,1.39
0.394,0.27,0.06,1.12,14.4,-11.51,-0.21
0.396,0.36,0.08,1.27,25.86,-14.9,2.09
0.397,0.39,0.1,1.41,26.38,-8.87,10.82
0.399,0.29,0.07,1.57,27.86,-5.66,25.42
0.401,0.15,-0.01,1.5,14.7,-13.95,35.18
0.403,0.23,-0.01,1.39,1.82,-31.05,24.21
0.405,0.35,0.07,1.26,-7.63,-53.68,9.56
0.406,0.48,0.08,1.5,8.09,-77.11,13.45
0.408,0.38,0.04,1.51,12.35,-54.2,27.6
0.41,0.29,0.0,1.33,-32.52,-6.72,34.63
0.412,0.43,0.1,1.06,-46.98,-19.16,30.4
0.414,0.5,-0.0,0.99,-39.13,-35.77,47.07
0.416,0.35,-0.02,0.87,-21.02,55.68,52.56
0.418,0.14,0.08,1.24,34.9,110.09,59.21
0.42,0.04,0.07,1.15,20.12,77.18,56.41
0.422,0.14,0.03,0.91,-13.01,58.27,33.13
0.423,0.14,-0.03,0.75,-20.92,3.28,27.89
0.425,0.13,-0.01,0.55,1.89,-23.97,27.76
0.428,0.2,0.09,0.8,52.73,-9.69,18.53
0.446,0.29,0.21,1.2,105.44,24.0,5.25
0.466,0.26,0.23,1.04,62.2,105.6,0.47
0.486,-0.01,0.12,0.87,16.17,168.66,4.58
0.506,-0.1,0.02,0.93,23.25,110.21,15.73
0.525,-0.01,0.03,0.87,31.51,16.96,10.03
0.548,0.16,0.25,1.18,44.32,-64.27,6.26
0.566,0.23,0.36,1.24,16.78,-59.62,2.6
0.585,0.18,0.19,0.96,-46.99,-19.5,7.59
0.606,0.15,0.06,0.78,-64.7,32.96,7.42
0.626,0.14,0.04,0.92,-34.75,13.8,9.21
0.646,0.03,-0.01,0.89,-45.76,1.21,19.08
0.665,0.19,0.04,0.91,-48.82,-21.68,10.67
0.686,0.21,0.09,0.97,-32.37,-31.85,12.76
0.706,0.26,0.16,0.93,-32.27,-16.87,19.18
0.726,0.05,-0.02,0.95,-40.08,-16.11,27.5
0.746,0.0,-0.06,0.96,-50.41,-7.33,25.53
0.764,0.04,-0.09,0.88,-43.48,-25.37,13.21
0.786,0.07,-0.07,0.85,-39.45,-38.63,3.19
0.809,0.2,-0.03,0.84,-22.46,-22.82,-14.9
0.829,0.23,0.05,0.97,-5.1,5.31,-15.59
0.846,0.57,0.02,0.56,0.17,35.3,-2.99
0.866,0.16,0.02,0.95,5.47,84.17,14.15
0.886,0.11,-0.05,0.94,-1.01,39.51,4.41
0.906,0.19,-0.02,1.03,7.48,-5.71,-0.02
0.926,0.22,0.04,1.03,-4.12,-12.85,-4.73
0.946,0.21,0.02,1.01,-19.19,11.31,1.21
0.966,0.14,-0.02,0.96,-36.03,31.66,4.31
0.985,0.07,-0.06,0.99,-26.43,37.16,4.09
1.008,-0.01,-0.12,0.95,-15.01,22.47,4.84
1.026,0.04,-0.17,0.88,-6.56,-1.36,-1.22
1.046,0.12,-0.03,1.1,20.02,-33.28,-8.27
1.066,0.13,0.06,1.14,14.43,-17.44,-8.67
1.085,0.11,0.07,1.07,-11.69,14.5,-9.01
1.108,0.05,-0.01,1.04,-24.78,24.79,-5.92
1.127,-0.01,-0.09,1.01,-18.14,-7.15,2.14
1.145,-0.0,-0.11,0.94,-15.3,-39.69,4.69
1.169,0.09,-0.13,0.98,0.89,-74.98,6.61
1.188,0.13,-0.07,0.97,-6.11,-34.21,2.78
1.207,0.13,-0.04,0.99,-12.21,-16.63,-5.48
1.226,0.18,-0.03,0.98,-12.85,-11.15,-11.92
1.248,0.2,-0.08,0.9,-14.05,-19.53,-12.23
1.267,0.26,-0.09,0.89,-13.11,-45.13,-7.98
1.287,0.28,-0.02,1.03,-0.52,-60.24,2.84
1.309,0.22,-0.06,0.85,-18.75,-17.48,17.53
1.326,0.17,-0.09,0.87,-26.64,-0.98,19.1
1.346,0.17,-0.11,0.9,-13.6,-7.83,9.53
1.369,0.24,-0.12,0.83,-14.03,3.33,-0.14
1.387,0.26,-0.1,0.86,-15.69,15.39,-6.35
1.405,0.23,-0.08,0.93,-8.34,27.27,-2.09
1.426,0.22,-0.13,0.9,-9.45,34.26,1.1
1.446,0.2,-0.18,0.9,-8.46,25.65,6.41
1.466,0.15,-0.14,0.91,-13.36,24.0,-2.29
1.484,0.13,-0.07,1.01,-15.48,33.18,-19.25
1.508,0.18,-0.08,1.01,-13.53,40.15,-24.52
1.527,0.15,-0.16,0.94,-16.09,37.42,-13.02
1.546,0.11,-0.18,0.96,-10.15,16.92,1.25
1.566,0.1,-0.15,0.98,-8.09,0.56,4.24
1.585,0.15,-0.15,0.97,-6.44,-3.95,-2.6
1.606,0.11,-0.14,1.02,-5.66,4.5,-6.34
1.626,0.08,-0.16,1.04,-2.32,8.9,-4.72
1.646,0.1,-0.14,1.09,0.7,0.82,-3.5
1.666,0.13,-0.14,1.05,-3.97,-2.89,-4.11
1.689,0.1,-0.12,1.03,-9.57,-5.37,-2.41
1.707,0.09,-0.13,1.03,-9.19,-2.14,-1.15
1.726,0.11,-0.17,1.01,-14.27,-5.11,-2.11
1.746,0.14,-0.15,0.98,-5.92,-8.64,-5.19
1.768,0.12,-0.12,1.02,-1.3,-2.98,-3.07
1.787,0.14,-0.1,1.0,-5.39,10.08,-1.51
1.806,0.07,-0.13,1.0,-5.11,27.71,-0.46
1.829,0.06,-0.12,0.99,-5.47,31.86,-4.35
1.848,0.03,-0.15,1.01,-1.39,26.37,-4.63
1.866,0.05,-0.17,0.95,6.93,7.45,1.98
1.886,0.05,-0.15,0.97,12.24,-0.66,4.14
1.906,0.0,-0.12,1.06,10.47,16.4,-3.54
1.929,0.04,-0.09,1.08,5.3,18.14,-20.17
1.947,0.03,-0.12,1.04,-3.69,22.7,-26.21
1.966,0.03,-0.11,1.02,-6.44,12.35,-20.35
1.986,0.11,-0.13,1.03,-0.53,-9.76,-14.29
2.006,0.08,-0.12,1.05,-3.01,-11.6,-6.79
2.025,0.04,-0.12,1.02,-16.99,3.13,-7.1
2.046,0.05,-0.16,0.96,-24.82,3.83,-11.04
2.066,0.08,-0.18,0.97,-21.18,-9.53,-13.69
2.088,0.1,-0.17,1.01,-16.12,-13.79,-9.54
2.106,0.09,-0.15,0.98,-15.91,-5.39,-5.94
2.126,0.08,-0.16,0.96,-20.41,-3.77,-6.31
2.146,0.09,-0.19,0.98,-15.07,-8.0,-6.96
2.166,0.06,-0.18,0.98,-15.47,-7.07,-6.69
2.186,0.08,-0.17,1.02,-13.71,-7.1,-6.99
2.206,0.06,-0.17,1.02,-13.01,-7.66,-4.26
2.225,0.03,-0.18,1.0,-15.36,-8.44,0.05
2.248,0.1,-0.19,0.98,-18.37,-15.91,-2.56
2.267,0.13,-0.19,0.95,-21.76,-21.11,-7.04
2.286,0.1,-0.25,0.93,-23.56,-15.16,-7.59
2.308,0.09,-0.25,0.93,-20.55,-10.03,-6.82
2.326,0.1,-0.24,0.94,-17.69,-6.44,-8.95
2.346,0.1,-0.25,0.97,-15.98,-5.74,-8.27
2.366,0.15,-0.28,0.93,-14.67,-11.71,-5.16
2.388,0.12,-0.28,0.9,-11.83,-12.37,-1.22
2.406,0.15,-0.26,0.89,-9.11,-12.03,-1.71
2.427,0.23,-0.23,0.92,-2.44,-15.27,-8.64
2.446,0.15,-0.22,0.97,1.42,0.96,-8.4
2.467,0.13,-0.19,0.96,-1.07,11.94,-7.45
2.489,0.08,-0.21,0.99,-1.5,14.15,-9.79
2.506,0.07,-0.25,0.98,-2.72,-2.41,-11.34
2.526,0.13,-0.22,0.96,-5.24,-9.86,-17.27
2.545,0.14,-0.23,0.96,-4.29,-11.98,-21.31
2.566,0.15,-0.22,0.96,-3.62,-9.54,-20.75
2.586,0.17,-0.2,0.97,1.33,-12.92,-18.44
2.606,0.18,-0.24,0.96,2.55,-28.43,-11.45
2.625,0.11,-0.25,0.99,2.82,-34.93,-3.05
2.646,0.11,-0.26,0.98,-1.6,-35.53,-0.53
2.665,0.2,-0.28,0.88,-11.85,-27.3,-8.0
2.692,0.29,-0.26,0.87,-22.52,-9.13,-26.26
2.707,0.32,-0.21,0.9,-17.83,-12.2,-32.53
2.731,0.24,-0.23,0.94,-29.53,1.77,-22.41
2.746,0.15,-0.24,0.91,-26.95,4.34,-12.02
2.766,0.14,-0.26,0.99,-23.6,-0.9,-10.38
2.788,0.13,-0.27,0.98,-19.47,-3.57,-18.47
2.806,0.18,-0.26,1.05,-20.49,5.8,-29.86
2.826,0.2,-0.26,0.98,-28.53,8.64,-34.9
2.846,0.19,-0.27,0.98,-31.63,6.02,-28.89
2.869,0.23,-0.26,0.94,-28.96,-13.42,-21.37
2.888,0.29,-0.27,0.97,-35.63,-23.69,-10.61
2.907,0.3,-0.25,1.02,-27.11,-20.23,-1.54
2.926,0.3,-0.26,0.94,-34.03,2.89,3.88
2.952,0.32,-0.32,0.9,-39.18,-4.06,6.69
2.966,0.32,-0.34,0.86,-39.34,-17.45,7.37
2.986,0.28,-0.37,0.97,-40.87,-9.56,12.7
3.006,0.17,-0.46,0.91,-59.36,2.5,17.39
3.029,0.11,-0.52,0.89,-71.3,6.82,15.36
3.048,0.19,-0.46,0.86,-70.34,-9.34,5.62
3.066,0.21,-0.45,0.97,-76.7,-16.99,0.63
3.086,0.14,-0.49,0.84,-88.69,-27.95,9.95
3.106,0.09,-0.54,0.68,-92.15,-16.29,11.57
3.126,0.14,-0.6,0.67,-85.85,-40.7,3.34
3.145,0.21,-0.59,0.62,-65.47,-52.79,-0.9
3.168,0.31,-0.58,0.62,-42.46,-42.82,-7.51
3.187,0.27,-0.61,0.73,-24.44,-6.58,-10.52
3.207,0.26,-0.58,0.75,-13.44,28.43,-17.62
3.229,0.29,-0.54,0.84,4.38,27.21,-13.62
3.246,0.26,-0.58,0.78,1.56,7.36,-4.72
3.266,0.28,-0.6,0.8,-0.66,-11.66,7.36
3.286,0.21,-0.63,0.76,-3.86,-18.08,15.82
3.306,0.11,-0.58,0.78,-6.47,-12.87,17.82
3.326,0.14,-0.59,0.79,-9.1,-13.62,6.81
3.346,0.16,-0.66,0.77,-8.7,3.94,-3.63
3.365,0.19,-0.61,0.73,-5.07,0.17,-12.69
3.386,0.19,-0.58,0.76,-3.15,-0.14,-11.04
3.406,0.24,-0.56,0.8,-2.06,-13.69,-6.61
3.425,0.3,-0.57,0.78,-0.15,-8.32,-7.89
3.446,0.29,-0.55,0.73,1.88,4.55,-9.42
3.466,0.27,-0.57,0.71,-5.89,0.53,-1.97
3.485,0.25,-0.65,0.61,-10.64,-9.3,2.34
3.509,0.19,-0.65,0.64,-8.6,-12.85,1.25
3.526,0.14,-0.7,0.64,-3.02,-8.67,2.11
3.546,0.19,-0.63,0.71,4.18,-2.55,-7.33
3.565,0.3,-0.64,0.66,1.33,-4.69,-18.58
3.586,0.36,-0.63,0.67,-1.56,-4.37,-19.28
3.606,0.37,-0.64,0.69,-1.51,0.89,-17.11
3.629,0.36,-0.58,0.77,3.53,10.75,-14.82
3.647,0.33,-0.52,0.79,4.85,15.98,-12.35
3.666,0.34,-0.52,0.84,6.4,4.58,-8.72
3.686,0.36,-0.56,0.8,-0.15,4.02,-6.6
3.706,0.34,-0.53,0.75,0.95,3.95,-2.27
3.726,0.3,-0.59,0.75,3.53,5.19,-0.12
3.746,0.3,-0.61,0.72,7.73,2.31,-0.75
3.766,0.29,-0.62,0.72,11.19,13.16,-6.18
3.789,0.28,-0.6,0.76,13.77,16.03,-9.01
3.806,0.31,-0.56,0.81,18.96,8.37,-8.56
3.826,0.32,-0.55,0.83,13.6,9.6,-8.9
3.847,0.26,-0.5,0.87,12.61,7.73,-8.46
3.866,0.23,-0.51,0.88,5.28,19.68,-9.98
3.886,0.3,-0.49,0.84,4.23,13.08,-14.31
3.906,0.36,-0.52,0.83,4.56,5.13,-10.76
3.926,0.35,-0.51,0.86,8.34,-0.84,-3.45
3.946,0.26,-0.49,0.9,10.69,1.04,6.87
3.966,0.18,-0.49,0.88,7.73,-7.42,13.69
3.986,0.27,-0.54,0.83,1.71,-20.06,7.69
