timestamp,acce_x,acce_y,acce_z,gyro_x,gyro_y,gyro_z
0.002,0.25,1.0,0.1,-2.26,-2.38,-0.99
0.003,0.24,0.99,0.09,-4.08,-2.64,-1.68
0.005,0.22,0.97,0.12,-2.95,0.58,-0.32
0.006,0.23,0.99,0.11,-3.36,2.43,-0.37
0.007,0.22,0.99,0.12,-4.49,-2.99,0.7
0.008,0.22,0.98,0.14,-2.02,-2.99,0.46
0.01,0.22,0.99,0.14,0.24,0.15,0.75
0.011,0.21,1.0,0.13,0.35,0.61,1.28
0.012,0.21,0.99,0.14,1.83,-4.47,2.29
0.013,0.24,1.0,0.12,2.41,-3.42,2.56
0.015,0.24,1.0,0.13,2.89,0.43,1.57
0.016,0.23,0.99,0.14,3.47,-1.98,2.41
0.017,0.25,0.99,0.13,4.92,-2.44,1.76
0.018,0.24,0.99,0.1,2.9,0.44,0.89
0.019,0.24,0.99,0.09,2.66,-1.39,0.12
0.02,0.22,0.99,0.1,0.52,0.2,1.08
0.021,0.23,0.98,0.12,1.37,-1.79,2.64
0.023,0.25,1.01,0.1,-1.8,-2.27,1.98
0.024,0.24,0.99,0.11,-5.62,-5.37,1.97
0.025,0.25,1.0,0.13,3.82,-1.65,0.52
0.026,0.25,0.98,0.12,1.01,0.79,0.52
0.027,0.23,0.99,0.13,0.82,0.75,-0.27
0.028,0.23,1.0,0.13,1.86,-3.6,1.4
0.029,0.24,0.99,0.12,2.17,-0.37,0.78
0.03,0.24,0.98,0.12,1.45,-1.62,1.19
0.031,0.25,1.0,0.11,0.6,-1.21,0.58
0.032,0.25,0.99,0.11,-0.26,-0.98,0.26
0.032,0.24,0.99,0.1,-0.52,-0.31,-0.12
0.033,0.24,1.01,0.08,-4.5,1.36,-0.61
0.034,0.24,0.99,0.09,-7.22,0.67,-0.69
0.035,0.24,1.0,0.08,-11.16,2.15,-0.09
0.036,0.23,1.03,0.05,-19.08,2.32,-0.18
0.037,0.23,1.01,0.07,-25.82,-6.24,0.08
0.038,0.25,1.03,0.03,-33.01,-10.31,-1.39
0.039,0.24,1.03,0.01,-51.1,-9.33,-3.62
0.04,0.22,1.02,0.04,-68.4,-7.83,-3.4
0.041,0.25,1.06,-0.01,-88.67,2.09,-3.27
0.042,0.27,1.07,-0.05,-131.59,28.34,-3.33
0.042,0.2,1.07,0.04,-172.02,42.31,-1.74
0.043,0.17,0.85,0.34,-154.32,5.05,-3.65
0.044,0.21,0.81,0.38,-138.66,-47.4,-6.84
0.045,0.28,0.9,0.23,-142.76,-22.64,-2.93
0.046,0.28,0.93,0.12,-185.6,26.95,1.51
0.047,0.23,0.83,0.26,-220.23,56.53,0.17
0.048,0.29,0.6,0.55,-214.69,43.48,-17.8
0.049,0.28,0.54,0.69,-191.5,17.83,-30.7
0.049,0.24,0.54,0.66,-172.18,19.62,-32.52
0.05,0.17,0.55,0.56,-171.4,35.63,-30.78
0.051,0.12,0.53,0.6,-175.22,47.79,-32.49
0.052,0.01,0.43,0.59,-176.27,53.02,-28.95
0.053,-0.01,0.38,0.68,-176.89,49.37,-25.33
0.054,0.03,0.33,0.75,-171.91,29.16,-30.18
0.054,0.04,0.25,0.86,-160.38,3.79,-34.63
0.055,0.06,0.16,0.94,-136.84,-17.65,-26.14
0.056,0.1,0.18,0.88,-129.3,-6.55,-17.98
0.057,0.07,0.2,0.83,-134.84,13.56,-9.94
0.058,0.06,0.17,0.82,-143.56,16.61,-4.53
0.058,-0.02,0.03,1.02,-141.62,3.59,2.63
0.059,0.05,-0.11,1.28,-95.21,-18.87,11.62
0.06,0.17,-0.08,1.24,-71.94,-15.77,13.8
0.061,0.17,-0.01,1.11,-56.61,6.09,5.68
0.062,0.13,0.04,1.01,-63.19,10.35,2.61
0.062,0.13,0.01,1.06,-75.36,7.65,-4.43
0.063,0.12,-0.08,1.15,-76.11,-1.63,-9.74
0.064,0.11,-0.12,1.16,-66.56,0.38,-11.11
0.065,0.1,-0.13,1.15,-61.45,18.38,-13.31
0.066,0.04,-0.13,1.11,-61.37,25.71,-13.76
0.067,-0.0,-0.15,1.13,-59.82,23.27,-14.44
0.067,-0.02,-0.2,1.2,-53.05,13.57,-14.79
0.068,-0.01,-0.2,1.2,-44.99,6.06,-11.28
0.069,0.03,-0.24,1.14,-31.39,10.76,-8.46
0.07,0.0,-0.23,1.14,-25.51,13.92,-4.99
0.07,-0.01,-0.21,1.1,-23.24,11.95,-1.24
0.071,0.0,-0.22,1.11,-19.5,9.73,0.2
0.072,0.0,-0.23,1.09,-11.98,6.53,2.18
0.073,0.03,-0.21,1.07,-10.72,4.11,2.05
0.073,0.05,-0.2,1.06,-12.66,5.08,-0.78
0.074,0.03,-0.21,1.06,-12.52,4.63,0.34
0.075,0.01,-0.22,1.07,-9.07,6.82,2.0
0.076,0.01,-0.22,1.05,-5.36,6.79,4.15
0.076,0.04,-0.24,1.06,-1.68,5.68,3.79
0.077,0.03,-0.24,1.06,3.25,5.95,1.56
0.078,0.03,-0.22,1.03,3.44,7.02,0.09
0.079,0.02,-0.2,1.0,-0.03,8.15,-1.27
0.079,-0.01,-0.22,1.0,-7.53,2.34,-2.6
0.08,-0.01,-0.23,1.0,-8.06,1.13,-2.41
0.085,0.0,-0.24,1.01,-7.77,0.6,-2.61
0.109,0.01,-0.24,1.02,-7.6,-0.37,-1.33
0.127,0.0,-0.25,1.0,-6.73,0.24,-2.69
0.146,-0.0,-0.25,1.0,-5.88,1.21,-4.12
0.169,0.0,-0.26,1.01,-5.89,0.23,-2.96
0.187,-0.01,-0.27,1.03,-3.95,-0.43,-2.4
0.206,0.01,-0.24,0.97,1.83,-2.47,-0.96
0.224,0.01,-0.22,0.97,3.69,-0.06,-1.1
0.248,-0.0,-0.23,0.98,0.12,2.6,-1.83
0.266,-0.01,-0.24,1.0,-0.46,0.09,-0.56
0.284,-0.01,-0.24,1.01,1.02,-1.86,-0.23
0.308,-0.0,-0.24,0.98,4.14,-3.86,1.19
0.326,0.01,-0.22,0.97,5.31,-1.08,1.53
0.345,-0.01,-0.23,0.97,3.27,2.55,0.06
0.369,-0.02,-0.24,1.01,2.76,1.68,-0.63
0.387,-0.02,-0.25,0.98,1.3,-1.47,0.02
0.406,0.0,-0.25,0.98,2.9,-3.1,0.72
0.424,-0.01,-0.25,0.98,2.63,-0.14,1.42
0.448,0.0,-0.24,0.98,2.14,3.82,0.93
0.465,-0.0,-0.23,0.97,1.13,0.66,0.79
0.489,0.0,-0.23,0.97,0.49,0.85,0.35
0.507,0.0,-0.24,0.98,-0.64,0.75,1.01
0.526,0.01,-0.26,1.03,-2.06,1.48,-0.15
0.544,0.01,-0.27,1.01,1.62,-4.98,-1.57
0.568,-0.0,-0.28,1.01,4.06,-4.64,-2.17
0.586,0.01,-0.27,0.99,5.47,-4.12,-0.84
0.605,0.02,-0.27,1.0,6.24,0.21,0.93
0.625,0.02,-0.25,1.01,4.87,2.75,1.34
0.645,0.03,-0.24,1.0,6.06,1.44,1.16
0.669,0.01,-0.2,0.99,7.15,-2.0,1.04
0.687,0.02,-0.21,0.97,4.58,-2.06,0.63
0.706,-0.02,-0.24,1.07,1.13,-2.64,1.39
0.724,-0.0,-0.22,1.01,-4.55,-0.76,0.99
0.748,0.02,-0.23,0.95,-0.96,-2.37,-0.38
0.766,0.01,-0.23,0.99,5.83,-1.28,0.06
0.785,0.0,-0.23,1.0,3.92,0.7,-0.06
0.808,-0.01,-0.23,0.99,4.41,-0.52,-0.56
0.826,-0.02,-0.22,0.99,5.82,-3.5,-1.54
0.845,-0.01,-0.22,0.98,5.95,-3.91,-1.3
0.868,0.0,-0.23,0.98,4.09,-2.09,0.05
0.887,-0.01,-0.22,0.99,4.35,-1.05,0.85
0.905,-0.0,-0.22,0.99,4.63,-2.63,0.75
0.929,-0.01,-0.22,0.99,5.82,-3.6,1.11
0.947,-0.0,-0.22,0.99,4.76,-5.01,0.92
0.965,0.01,-0.22,0.99,4.06,-5.27,1.16
0.989,0.03,-0.22,1.01,4.2,-1.63,2.06
1.008,0.03,-0.21,0.99,5.21,-3.11,2.08
1.026,0.03,-0.21,0.99,5.07,-0.23,0.66
1.045,0.03,-0.21,0.99,4.4,-1.5,1.42
1.068,0.03,-0.2,1.0,3.39,-0.56,0.15
1.085,0.03,-0.22,1.01,2.47,0.43,0.29
1.105,0.02,-0.21,1.01,2.56,0.26,0.05
1.129,0.02,-0.22,1.01,2.76,0.84,-0.08
1.147,0.01,-0.21,1.01,4.9,-1.53,0.75
1.166,0.01,-0.2,1.0,5.48,-0.67,-0.11
1.184,0.01,-0.2,1.0,5.1,-0.6,0.29
1.206,0.02,-0.21,1.0,4.73,0.08,0.56
1.225,0.02,-0.21,1.01,4.47,1.11,0.67
1.249,0.02,-0.22,1.03,4.7,0.08,-0.11
1.267,0.02,-0.21,1.02,6.56,-2.0,0.08
1.286,0.0,-0.21,1.01,8.34,-0.29,0.08
1.304,0.02,-0.2,1.01,9.34,-3.25,2.08
1.328,0.03,-0.19,1.02,8.84,-2.24,1.68
1.346,0.01,-0.2,1.02,9.97,-1.66,1.02
1.365,0.01,-0.2,1.04,10.9,-2.99,0.23
1.388,0.02,-0.2,1.02,13.36,-4.32,1.53
1.407,0.02,-0.19,1.02,15.01,-3.48,2.81
1.425,0.02,-0.19,1.04,15.24,0.69,2.7
1.449,0.02,-0.19,1.03,17.24,-0.72,1.95
1.467,0.04,-0.18,1.04,18.79,-4.95,2.05
1.486,0.03,-0.17,1.04,21.53,-2.15,2.75
1.504,0.01,-0.15,1.03,24.32,2.15,3.21
1.528,0.02,-0.15,1.04,25.88,0.64,3.15
1.546,0.01,-0.14,1.03,27.95,-4.61,2.56
1.564,0.01,-0.13,1.03,29.25,-3.92,2.03
1.588,0.03,-0.13,1.04,29.13,-3.65,4.55
1.607,0.03,-0.11,1.04,31.16,-3.74,5.74
1.625,0.03,-0.1,1.04,33.25,-2.02,4.17
1.648,0.02,-0.09,1.05,33.95,-1.6,3.34
1.667,0.04,-0.07,1.04,33.94,-4.66,4.66
1.685,0.06,-0.07,1.06,34.06,-3.02,5.3
1.709,0.06,-0.06,1.03,36.11,-3.28,4.72
1.727,0.05,-0.03,1.03,39.07,-2.38,2.55
1.745,0.03,-0.06,1.08,36.79,-2.32,1.66
1.769,0.07,-0.1,1.1,40.31,-7.01,3.45
1.787,0.03,-0.03,1.1,52.79,-13.74,6.53
1.806,0.06,0.01,1.05,53.05,-8.82,7.62
1.824,0.04,0.02,1.03,57.85,-4.98,5.51
1.848,0.03,0.05,1.04,58.18,-5.73,3.74
1.866,-0.04,0.11,1.08,58.93,-8.23,4.03
1.884,0.02,0.1,1.04,52.6,-19.76,7.98
1.908,0.04,0.13,1.01,63.33,-8.87,4.85
1.927,0.05,0.15,0.98,60.18,-7.28,4.76
1.945,0.05,0.2,0.98,55.47,-9.33,5.4
1.969,0.07,0.19,1.01,48.32,-9.18,6.4
1.987,0.07,0.19,1.0,47.13,-11.5,6.58
2.005,0.07,0.2,0.98,47.02,-10.03,6.06
2.024,0.07,0.22,0.98,46.6,-6.82,7.1
2.048,0.08,0.22,1.0,46.35,-6.11,7.45
2.066,0.07,0.23,1.0,46.87,-8.0,6.93
2.085,0.07,0.22,1.0,50.6,-8.72,7.69
2.108,0.08,0.24,1.0,55.74,-7.8,8.92
2.127,0.08,0.27,0.97,62.66,-5.39,10.24
2.145,0.07,0.3,0.95,68.49,-1.1,8.56
2.168,0.09,0.31,0.96,73.07,-3.5,7.24
2.187,0.11,0.34,0.94,78.14,-9.28,7.13
2.205,0.11,0.4,0.87,82.66,-10.93,5.91
2.224,0.14,0.39,0.92,80.12,-3.02,6.85
2.246,0.11,0.4,0.92,69.79,1.04,6.06
2.269,0.13,0.42,0.89,82.34,-3.6,4.32
2.287,0.15,0.49,0.87,88.15,-2.14,5.21
2.306,0.13,0.54,0.83,89.77,-0.61,3.22
2.324,0.14,0.57,0.8,85.82,-0.93,3.28
2.348,0.13,0.58,0.8,80.27,-0.14,2.93
2.366,0.13,0.6,0.78,76.18,-0.72,2.85
2.385,0.13,0.63,0.78,73.89,-0.44,3.21
2.409,0.14,0.66,0.76,73.48,-1.22,2.41
2.427,0.13,0.69,0.74,69.11,-3.15,2.98
2.445,0.14,0.7,0.71,64.84,-2.44,4.06
2.464,0.15,0.72,0.73,58.66,-2.17,3.48
2.488,0.13,0.71,0.74,52.69,-3.77,2.03
2.506,0.13,0.71,0.75,48.6,-6.56,2.49
2.524,0.14,0.72,0.71,50.9,-5.89,3.89
2.548,0.12,0.74,0.7,50.81,-3.8,3.07
2.567,0.12,0.73,0.72,49.83,-1.37,2.87
2.585,0.12,0.73,0.71,53.39,-2.34,4.26
2.609,0.13,0.75,0.67,59.13,-6.4,6.23
2.627,0.13,0.79,0.62,63.74,-4.89,7.36
2.645,0.13,0.79,0.61,63.18,0.78,6.75
2.665,0.14,0.78,0.6,64.78,2.52,7.18
2.689,0.15,0.8,0.54,66.14,-0.03,7.79
2.707,0.15,0.81,0.53,68.61,-4.73,8.89
2.726,0.17,0.85,0.49,69.76,4.41,11.88
2.745,0.15,0.87,0.45,67.22,1.53,9.4
2.769,0.15,0.85,0.45,61.63,-3.8,8.4
2.787,0.17,0.83,0.48,58.67,0.32,12.15
2.806,0.17,0.84,0.46,61.51,3.74,11.62
2.825,0.15,0.86,0.44,66.05,2.89,12.63
2.848,0.15,0.88,0.44,71.01,3.04,14.27
2.866,0.18,0.89,0.38,67.94,8.0,17.98
2.885,0.14,0.91,0.38,68.82,4.44,15.3
2.909,0.18,0.88,0.36,65.22,3.48,20.75
2.927,0.18,0.91,0.34,72.27,8.05,22.23
2.945,0.22,1.01,0.19,75.94,5.77,22.03
2.964,0.2,1.01,0.19,69.19,4.72,16.15
2.988,0.21,0.96,0.23,54.89,0.34,15.63
3.006,0.24,0.96,0.23,45.74,-5.66,17.57
3.024,0.25,1.01,0.19,44.5,-4.92,19.57
3.048,0.27,0.98,0.19,40.49,3.86,17.95
3.066,0.29,0.96,0.19,40.32,-0.23,13.3
3.085,0.28,1.0,0.23,34.61,-3.18,11.08
3.105,0.27,0.98,0.21,34.17,4.27,8.03
3.125,0.28,0.98,0.21,34.47,5.08,6.72
3.145,0.27,0.98,0.2,34.6,6.89,3.05
3.165,0.25,0.96,0.19,35.47,7.73,0.99
3.189,0.22,0.96,0.22,38.41,11.98,-2.61
3.207,0.23,0.99,0.17,39.16,13.05,-0.23
3.226,0.2,1.01,0.11,42.93,12.08,-1.71
3.244,0.21,1.0,0.12,37.69,8.7,-2.66
3.268,0.21,1.01,0.08,36.73,6.17,-2.24
3.286,0.21,1.0,0.07,34.2,4.87,-2.52
3.305,0.2,1.01,0.04,33.63,11.68,-3.62
3.328,0.2,1.03,-0.01,29.97,13.44,-4.93
3.346,0.2,0.98,-0.07,22.87,11.66,-4.35
3.365,0.18,0.97,-0.01,15.65,12.15,-5.65
3.388,0.17,0.96,-0.05,9.44,8.02,-4.44
3.407,0.17,0.99,-0.07,10.06,10.06,-2.95
3.425,0.16,0.99,-0.04,1.6,7.91,0.5
3.449,0.17,0.99,-0.02,-4.63,-2.99,3.11
3.467,0.21,0.98,0.02,-7.05,-10.02,6.63
3.486,0.23,1.01,0.05,-7.92,-10.92,8.4
3.504,0.22,1.02,0.07,-7.54,-9.8,7.6
3.528,0.23,1.01,0.1,-9.21,-8.85,7.65
3.546,0.24,1.0,0.12,-6.87,-8.21,6.5
3.565,0.24,1.01,0.11,-3.48,-7.68,5.89
3.588,0.25,1.01,0.11,-0.06,-5.07,5.18
3.605,0.24,1.01,0.1,2.63,-2.67,3.57
3.625,0.24,0.99,0.1,5.6,-0.17,1.88
3.644,0.24,0.98,0.08,6.6,0.72,1.08
3.668,0.22,0.99,0.05,6.58,4.03,1.45
3.686,0.21,0.99,0.05,4.82,2.66,1.31
3.705,0.22,0.96,0.08,3.31,-4.6,2.29
3.725,0.25,0.96,0.05,2.02,-5.24,3.97
3.745,0.24,0.99,0.04,1.65,-2.67,4.99
3.765,0.25,1.01,0.03,-0.49,3.11,2.7
3.789,0.24,0.98,0.05,-3.77,-2.02,2.18
3.807,0.26,0.96,0.08,-5.13,-5.56,2.81
3.826,0.26,1.01,0.07,-3.4,-6.58,2.96
3.844,0.25,1.01,0.08,-4.0,-5.71,0.43
3.868,0.24,0.99,0.1,-5.37,-8.38,-1.24
3.886,0.24,1.0,0.1,-2.98,-6.38,-0.38
3.905,0.24,1.0,0.09,-0.12,-1.68,-0.92
3.928,0.22,1.0,0.07,-0.79,1.42,-1.86
3.947,0.24,1.0,0.07,1.5,-2.12,-0.09
3.965,0.23,1.0,0.08,1.53,-0.7,-0.26
3.989,0.23,0.99,0.08,-0.23,-1.36,-0.06
