timestamp,acce_x,acce_y,acce_z,gyro_x,gyro_y,gyro_z
0.001,-0.11,-0.22,0.96,1.11,1.62,-0.84
0.002,-0.1,-0.23,0.96,1.01,0.4,-1.21
0.004,-0.1,-0.21,0.95,0.5,-0.2,-1.44
0.005,-0.1,-0.21,0.95,0.17,-0.21,-0.99
0.006,-0.11,-0.22,0.95,-0.26,0.06,-0.03
0.007,-0.08,-0.24,0.97,-1.37,-2.09,-0.6
0.009,-0.08,-0.23,0.97,0.75,-1.33,-0.84
0.01,-0.09,-0.21,0.95,0.6,1.13,-1.51
0.011,-0.11,-0.23,0.96,-1.1,2.56,-1.94
0.012,-0.1,-0.24,0.97,-1.04,-0.05,-1.24
0.014,-0.08,-0.23,0.97,-0.35,0.35,-1.54
0.015,-0.07,-0.21,0.99,0.78,-0.08,-1.1
0.016,-0.11,-0.24,0.97,-0.23,0.35,-0.73
0.017,-0.1,-0.23,0.97,1.94,1.45,-1.33
0.018,-0.1,-0.22,0.97,1.68,0.72,-1.97
0.019,-0.1,-0.21,0.95,1.82,-0.41,-1.39
0.02,-0.09,-0.22,0.96,1.47,-0.26,-1.8
0.021,-0.09,-0.24,0.98,-0.31,-0.14,-1.24
0.022,-0.1,-0.22,0.95,1.85,1.19,-1.16
0.023,-0.09,-0.22,0.95,1.79,1.25,-2.08
0.024,-0.12,-0.22,0.96,1.79,-0.78,-2.67
0.025,-0.1,-0.22,0.97,0.92,-2.55,-1.57
0.026,-0.1,-0.23,0.96,0.49,-1.65,-0.73
0.027,-0.1,-0.23,0.95,0.79,-0.7,-0.43
0.028,-0.09,-0.23,0.95,0.76,0.81,0.08
0.029,-0.09,-0.23,0.94,0.41,-1.36,-0.14
0.03,-0.09,-0.21,1.01,0.4,-0.67,-0.38
0.031,-0.11,-0.25,0.98,-1.53,-0.47,-0.67
0.032,-0.1,-0.23,0.96,1.28,-0.21,-0.46
0.033,-0.1,-0.24,0.96,1.56,-0.55,-0.08
0.034,-0.09,-0.23,0.95,1.27,-1.13,-0.53
0.035,-0.08,-0.24,0.96,0.49,-2.66,-0.72
0.036,-0.08,-0.22,0.94,1.73,-1.44,-0.12
0.037,-0.09,-0.23,0.95,0.29,0.44,-0.37
0.038,-0.1,-0.23,0.93,1.11,-0.49,-0.93
0.039,-0.1,-0.23,0.95,0.6,-0.18,-1.16
0.04,-0.09,-0.23,0.95,0.03,-1.56,-0.95
0.04,-0.09,-0.25,0.97,-1.97,-2.64,-0.95
0.041,-0.08,-0.24,0.96,0.52,-0.09,-0.2
0.042,-0.09,-0.24,0.97,1.31,2.98,-1.54
0.043,-0.11,-0.24,0.97,1.18,4.11,-1.5
0.044,-0.11,-0.25,0.98,1.47,2.72,-1.69
0.045,-0.14,-0.25,1.0,1.15,-0.05,-1.86
0.046,-0.15,-0.26,1.04,0.64,-0.95,-0.67
0.047,-0.19,-0.29,1.11,3.3,-2.63,1.69
0.047,-0.16,-0.3,1.17,4.11,-7.21,3.73
0.048,-0.18,-0.32,1.28,5.44,-11.57,5.48
0.049,-0.12,-0.33,1.29,9.37,-13.91,6.84
0.05,-0.14,-0.31,1.32,16.43,-10.53,6.37
0.051,-0.09,-0.25,1.29,21.59,-14.43,6.66
0.051,-0.07,-0.25,1.3,21.05,-19.74,6.64
0.052,-0.14,-0.35,1.37,19.59,-15.51,6.24
0.053,-0.22,-0.32,1.37,23.3,-9.18,7.79
0.054,-0.14,-0.26,1.33,34.32,-15.77,13.42
0.055,-0.05,-0.23,1.3,34.09,-23.33,14.08
0.056,0.02,-0.2,1.22,31.11,-24.55,11.85
0.057,0.03,-0.17,1.17,26.72,-20.11,6.93
0.057,-0.01,-0.17,1.13,19.1,-9.89,4.12
0.058,-0.08,-0.23,1.14,13.36,-5.31,0.99
0.059,-0.11,-0.27,1.16,10.08,-17.73,-3.18
0.06,-0.14,-0.31,1.19,24.09,-26.08,4.85
0.061,0.01,-0.17,1.05,52.03,-36.18,16.5
0.062,-0.02,-0.09,1.06,57.85,-43.92,21.5
0.062,0.07,-0.02,0.95,49.56,-41.02,16.31
0.063,0.16,-0.01,0.95,41.77,-35.07,19.8
0.064,0.22,-0.1,1.0,27.15,-48.96,17.36
0.064,0.18,-0.12,1.03,28.61,-37.15,12.78
0.065,0.14,-0.06,0.97,43.02,-32.41,6.73
0.066,0.17,0.05,0.88,54.7,-36.67,2.52
0.067,0.15,0.1,0.87,50.9,-31.45,1.88
0.067,0.18,0.15,0.82,35.97,-28.7,6.43
0.068,0.16,0.17,0.81,19.65,-8.17,12.17
0.069,0.17,0.03,0.88,-4.9,-7.04,9.95
0.07,0.04,-0.04,0.97,-9.22,-8.55,-13.1
0.07,-0.07,0.03,1.13,1.62,-10.29,-23.34
0.071,-0.05,0.07,0.9,21.48,-7.6,-12.52
0.072,0.03,0.12,0.83,31.16,-24.56,-1.59
0.073,0.09,0.14,0.79,20.9,-25.01,4.92
0.073,0.11,0.14,0.77,5.5,-25.95,-0.02
0.074,0.11,0.13,0.74,-9.3,-23.02,-6.24
0.075,0.08,0.02,0.81,-22.95,-21.56,-8.76
0.076,0.03,-0.03,0.9,-24.93,-19.85,-9.6
0.076,0.09,0.05,0.84,-7.91,-26.31,-5.37
0.078,0.11,0.05,0.99,1.53,0.12,3.63
0.078,0.1,0.04,0.99,-0.32,-1.53,-0.95
0.085,0.1,0.03,1.0,-1.63,-2.18,-3.95
0.103,0.11,0.03,1.01,-2.17,-2.32,-1.94
0.121,0.12,0.01,1.0,-1.5,-0.67,-1.25
0.145,0.1,0.02,1.0,-1.62,-2.87,-2.64
0.163,0.1,0.02,1.0,-1.59,-0.81,-1.08
0.182,0.11,0.01,1.0,-1.44,-0.38,0.53
0.2,0.1,-0.0,1.02,-1.97,-0.17,-1.97
0.224,0.1,0.01,1.0,-0.09,2.31,-2.79
0.241,0.1,0.03,0.99,1.71,0.72,-1.95
0.261,0.08,0.03,1.01,0.23,0.85,-4.09
0.285,0.09,0.02,1.0,-1.37,-1.16,-5.27
0.303,0.11,0.03,0.99,-0.76,-1.62,-3.89
0.322,0.09,0.05,0.97,1.08,-1.18,-3.69
0.34,0.1,0.03,0.99,-0.81,-3.53,-5.88
0.364,0.08,0.01,1.01,-2.63,-2.61,-5.95
0.382,0.09,-0.03,1.02,-2.23,-2.26,-2.89
0.401,0.09,-0.02,1.03,0.29,-1.97,-0.53
0.424,0.07,-0.0,1.0,4.55,-0.75,0.98
0.443,0.1,0.02,1.01,5.82,-1.79,1.28
0.461,0.12,0.02,1.0,4.81,-3.01,-0.52
0.481,0.13,0.02,1.02,2.26,-0.81,0.69
0.5,0.12,0.01,1.01,1.92,0.26,3.15
0.524,0.11,0.03,0.99,2.66,1.13,0.32
0.542,0.14,0.02,1.0,0.78,-2.5,-3.15
0.561,0.13,0.02,1.01,0.23,-2.55,-2.35
0.582,0.12,0.02,1.01,1.1,0.43,-0.66
0.602,0.11,0.03,1.0,2.2,0.14,-2.11
0.625,0.11,0.02,1.0,1.8,-2.56,-3.8
0.643,0.1,0.02,1.0,1.83,-1.39,-4.12
0.662,0.09,0.03,0.99,3.57,-2.09,-3.56
0.681,0.1,0.04,0.98,3.54,-0.84,-2.32
0.704,0.11,0.03,1.0,3.24,-1.94,-0.89
0.723,0.12,0.04,0.99,4.31,-3.54,-3.16
0.741,0.11,0.02,0.98,3.82,-0.75,-1.92
0.765,0.09,0.02,1.01,3.47,2.29,0.35
0.782,0.1,0.03,0.99,5.6,1.27,-1.18
0.805,0.1,0.05,0.99,7.53,-0.47,-0.81
0.822,0.1,0.03,1.0,5.83,-0.63,0.2
0.845,0.1,0.04,1.0,4.49,-1.8,-1.21
0.863,0.11,0.05,0.99,5.24,-2.87,-2.03
0.882,0.11,0.05,0.99,3.34,-1.91,-1.98
0.901,0.13,0.02,1.01,1.54,-1.89,-0.75
0.924,0.14,0.03,1.01,2.82,-1.42,-0.87
0.942,0.11,0.06,0.98,6.53,0.9,-1.6
0.961,0.1,0.06,0.99,5.47,1.05,-0.92
0.985,0.14,0.05,0.98,3.21,-2.56,-0.63
1.003,0.13,0.03,0.99,2.17,-1.91,-1.56
1.022,0.11,0.06,0.96,4.95,0.23,0.79
1.041,0.13,0.08,0.94,6.55,0.82,0.6
1.061,0.12,0.11,0.92,4.75,0.63,-1.3
1.085,0.12,0.1,0.93,1.39,-1.42,-1.65
1.104,0.09,0.03,1.0,-4.43,-2.89,-2.78
1.122,0.11,0.02,1.02,-3.59,-4.26,-2.98
1.14,0.11,0.02,1.03,0.89,-3.8,-1.37
1.164,0.12,0.03,1.01,4.63,-5.15,-0.73
1.183,0.12,0.04,0.98,6.55,-6.34,-0.63
1.202,0.07,-0.0,1.01,6.5,-4.76,0.05
1.225,0.07,0.01,0.99,10.32,-3.98,2.4
1.244,0.1,0.06,0.94,16.99,-9.92,3.04
1.262,0.08,0.1,0.92,18.34,-12.4,1.95
1.28,0.03,0.12,0.87,16.6,-18.82,2.79
1.304,0.17,0.14,0.85,7.48,-34.15,-4.85
1.322,0.12,0.11,0.91,3.27,-20.43,-0.31
1.341,0.12,0.11,0.87,-3.04,-18.47,-2.05
1.364,0.14,0.06,0.88,-9.48,-16.98,0.18
1.382,0.17,0.02,0.9,-12.43,-9.39,10.61
1.401,0.15,0.06,0.98,-13.94,-3.01,15.25
1.424,0.1,0.02,0.89,-16.05,-7.82,10.2
1.443,0.09,-0.05,0.9,-13.91,-19.68,1.68
1.461,0.14,-0.04,0.95,-5.13,-23.69,1.97
1.484,0.17,0.02,0.88,7.92,-25.19,15.56
1.503,0.15,0.06,0.82,13.08,-17.47,20.35
1.521,0.17,0.07,0.87,8.78,-24.98,11.79
1.545,0.22,0.05,0.87,5.04,-29.4,6.11
1.563,0.28,0.04,0.91,2.49,-30.95,12.79
1.581,0.28,0.05,0.91,4.52,-12.41,25.57
1.605,0.27,0.04,0.94,4.6,-10.85,22.67
1.624,0.31,-0.04,0.98,-0.58,-17.11,13.85
1.642,0.34,0.02,0.93,4.32,-22.4,7.5
1.665,0.3,0.11,0.9,12.34,-5.6,13.74
1.683,0.26,0.15,0.87,11.91,4.05,18.98
1.702,0.26,0.09,0.92,-0.58,-3.34,8.58
1.72,0.33,-0.02,1.02,-15.44,-13.63,-1.69
1.744,0.37,-0.07,0.85,-13.4,-8.84,7.28
1.762,0.35,0.05,0.92,2.64,10.35,13.04
1.781,0.28,0.09,0.89,6.47,26.24,15.11
1.804,0.21,0.08,0.91,-3.79,22.26,5.98
1.823,0.22,-0.01,0.94,-14.9,16.53,-0.23
1.841,0.23,0.04,0.94,-12.03,16.03,5.63
1.864,0.14,0.08,0.92,-2.11,26.87,11.94
1.883,0.17,0.0,0.92,-5.6,22.24,9.05
1.901,0.28,-0.03,0.95,-12.93,-4.18,-2.93
1.925,0.21,0.02,0.89,-6.29,25.94,2.47
1.943,0.1,0.11,0.85,-0.14,37.15,6.76
1.962,0.09,0.08,0.89,-1.42,38.4,8.41
1.985,0.16,-0.07,1.02,-16.27,18.35,3.02
2.004,0.24,-0.13,1.03,-15.39,4.52,0.7
2.022,0.25,-0.02,0.98,1.28,4.93,1.16
2.045,0.2,0.03,0.92,11.24,15.39,1.27
2.064,0.11,0.0,0.95,3.24,21.95,-1.54
2.082,0.11,-0.08,1.02,-2.82,13.77,-2.53
2.1,0.14,-0.03,0.88,-0.78,4.08,-4.09
2.124,0.18,-0.04,0.95,2.89,1.15,-2.58
2.142,0.1,-0.02,0.9,7.22,16.11,-3.57
2.16,0.04,0.0,0.91,0.78,17.79,-3.95
2.184,0.09,-0.02,0.94,-4.66,12.49,3.39
2.203,0.09,-0.02,0.96,-5.86,4.73,3.33
2.221,0.21,0.06,0.95,-6.06,-4.49,-3.13
2.245,0.18,-0.06,1.01,-21.07,2.64,-2.0
2.263,0.15,-0.12,1.1,-23.76,7.63,-9.15
2.281,0.23,-0.02,1.0,-9.39,6.15,-6.52
2.305,0.11,-0.0,1.0,-3.65,17.56,-14.32
2.323,0.01,-0.05,1.07,-13.6,21.79,-16.69
2.341,-0.0,-0.05,1.14,-12.47,16.56,-17.1
2.364,0.06,-0.11,1.18,-14.06,8.99,-9.92
2.383,0.14,-0.05,1.13,-8.93,6.09,-7.89
2.401,0.13,-0.0,1.07,-6.46,9.92,-12.32
2.425,0.01,-0.05,1.11,-12.73,16.61,-14.99
2.443,-0.04,-0.07,1.11,-14.72,22.46,-11.77
2.461,0.03,0.01,1.06,-10.12,12.08,-7.97
2.484,0.1,-0.0,1.02,-13.73,3.39,-4.92
2.502,0.1,-0.07,1.06,-24.24,5.02,-3.19
2.521,0.0,-0.05,1.07,-25.42,15.51,-0.18
2.544,-0.01,-0.08,1.08,-26.5,20.76,-2.53
2.562,0.08,-0.13,1.12,-30.55,8.79,-0.27
2.581,0.1,-0.08,1.09,-24.46,7.16,4.52
2.604,0.1,-0.14,1.08,-26.99,11.6,0.76
2.623,-0.01,-0.17,1.12,-28.4,18.03,-1.19
2.641,-0.01,-0.14,1.09,-23.94,20.47,1.82
2.664,0.04,-0.15,1.07,-22.26,11.89,4.18
2.683,0.02,-0.22,1.06,-23.3,7.19,6.27
2.701,0.06,-0.17,1.07,-24.02,9.39,3.11
2.725,0.02,-0.2,1.09,-19.44,3.79,2.99
2.743,-0.07,-0.21,1.09,-18.76,13.85,1.8
2.761,-0.02,-0.23,1.11,-13.94,10.12,5.1
2.785,0.02,-0.2,1.08,-10.93,6.02,7.89
2.803,0.08,-0.24,1.04,-5.47,3.51,8.26
2.821,0.04,-0.23,1.09,-4.14,4.82,6.53
2.841,0.01,-0.18,1.04,3.04,9.69,3.66
2.862,0.01,-0.19,1.04,3.07,8.49,1.74
2.885,-0.01,-0.2,1.04,0.31,13.6,1.24
2.903,-0.05,-0.2,1.04,0.66,12.17,1.48
2.922,-0.01,-0.21,1.07,-1.01,4.61,2.66
2.94,0.04,-0.22,1.08,-2.34,-2.79,4.7
2.962,0.03,-0.21,1.05,0.95,2.93,4.0
2.982,-0.01,-0.2,1.02,2.31,4.27,1.76
3.005,-0.01,-0.21,1.03,1.92,1.19,2.47
3.023,0.02,-0.2,1.0,4.24,-1.48,2.89
3.042,0.01,-0.21,0.99,5.39,0.08,3.18
3.062,-0.0,-0.18,0.97,5.25,1.85,1.51
3.085,-0.05,-0.18,0.98,5.34,1.25,1.33
3.103,-0.0,-0.2,0.99,0.9,-3.42,2.56
3.122,0.04,-0.22,0.99,0.98,-8.78,3.11
3.14,0.0,-0.22,1.01,2.47,-3.31,2.7
3.164,0.03,-0.22,1.01,3.42,-2.06,1.28
3.183,0.02,-0.2,1.0,4.87,-2.64,0.26
3.202,-0.0,-0.19,0.98,6.67,1.45,0.17
3.225,-0.01,-0.18,0.96,6.12,2.4,0.95
3.244,-0.03,-0.18,0.97,5.39,1.39,1.69
3.262,-0.0,-0.18,0.98,5.54,-2.06,2.14
3.28,0.01,-0.18,0.97,5.8,-3.01,1.8
3.304,-0.01,-0.19,0.98,4.4,-1.31,0.24
3.322,-0.01,-0.17,0.98,4.58,-1.36,-1.76
3.341,-0.01,-0.19,1.0,4.87,-3.47,-0.85
3.364,0.01,-0.18,0.97,5.89,-2.37,-0.67
3.383,0.02,-0.17,0.96,6.46,-2.34,-0.11
3.401,-0.01,-0.16,0.97,5.39,-0.11,-1.62
3.424,-0.05,-0.16,0.96,4.72,2.9,-2.6
3.443,-0.02,-0.15,0.94,3.21,0.14,-1.31
3.461,-0.0,-0.17,0.97,-0.15,-2.81,0.82
3.485,0.01,-0.18,0.97,-0.18,-2.0,1.62
3.502,0.0,-0.16,0.96,0.67,0.69,1.07
3.522,0.01,-0.16,0.96,0.56,1.56,0.87
3.545,0.01,-0.18,0.96,-1.73,2.17,1.77
3.563,0.0,-0.18,0.96,-2.38,3.4,0.64
3.582,-0.01,-0.21,0.98,-2.52,5.68,0.85
3.6,-0.0,-0.18,0.98,-0.89,5.07,-0.89
3.624,-0.04,-0.17,0.98,0.37,7.51,-1.95
3.642,-0.04,-0.2,0.99,-2.38,4.84,-1.89
3.661,-0.03,-0.18,0.98,0.4,0.24,-0.11
3.684,-0.0,-0.17,0.96,1.18,-0.84,1.33
3.703,-0.0,-0.19,0.98,0.05,1.92,-0.76
3.721,-0.0,-0.18,0.99,1.88,2.06,-1.21
3.744,0.02,-0.17,0.99,0.5,1.11,-1.37
3.763,-0.01,-0.17,0.97,0.41,3.44,-1.48
3.781,-0.02,-0.18,0.98,-0.79,2.4,-2.11
3.805,-0.01,-0.18,1.0,-0.7,-0.63,-1.65
3.823,-0.0,-0.21,1.01,-0.64,-1.39,-0.96
3.841,0.01,-0.18,1.0,2.05,-2.38,-1.74
3.865,-0.01,-0.17,0.99,4.66,-0.49,-2.61
3.883,-0.03,-0.19,0.99,3.21,3.04,-2.31
3.902,-0.0,-0.18,1.0,2.72,3.42,-0.12
3.925,-0.01,-0.17,0.98,5.56,1.65,0.85
3.944,-0.02,-0.16,0.97,4.89,2.58,-0.69
3.962,-0.02,-0.14,0.94,6.35,1.89,-1.4
3.98,-0.02,-0.17,0.96,2.0,1.62,-1.4
