timestamp,acce_x,acce_y,acce_z,gyro_x,gyro_y,gyro_z
0.009,-0.1,-0.27,1.0,-9.22,-1.22,-4.92
0.018,-0.08,-0.24,0.98,-11.4,5.63,-8.2
0.025,-0.03,-0.26,0.89,-4.61,-0.64,-3.24
0.03,-0.09,-0.27,0.98,-2.41,0.44,-1.45
0.035,-0.11,-0.26,0.98,-1.56,-2.9,-1.69
0.039,-0.11,-0.28,0.97,-4.06,-3.63,-2.26
0.044,-0.11,-0.27,0.97,-6.95,-3.79,-5.05
0.048,-0.07,-0.27,0.91,-6.35,-5.65,-5.24
0.053,-0.09,-0.27,0.91,-6.15,-5.45,-5.02
0.06,-0.07,-0.28,0.95,-3.65,-5.59,-5.11
0.065,-0.07,-0.28,0.97,-3.54,-5.18,-5.3
0.069,-0.06,-0.32,0.98,1.02,1.15,-4.85
0.073,-0.06,-0.29,1.0,0.69,1.74,-3.4
0.078,-0.05,-0.28,0.98,0.35,1.24,-2.0
0.083,-0.08,-0.3,0.99,-2.41,3.62,-1.08
0.087,-0.05,-0.29,0.98,-2.63,0.43,-1.1
0.091,-0.08,-0.28,0.96,-2.09,-0.53,-0.43
0.096,-0.13,-0.28,0.95,-3.59,-1.66,-1.28
0.1,-0.1,-0.29,0.95,-4.81,0.98,-3.97
0.104,-0.1,-0.29,1.0,-6.21,0.4,-4.46
0.107,-0.09,-0.27,0.92,-8.87,-5.28,-5.34
0.109,-0.09,-0.28,0.97,-9.8,-1.57,-5.31
0.111,-0.08,-0.27,0.93,-10.47,-0.29,-4.58
0.113,-0.08,-0.28,0.93,-8.37,2.11,-5.02
0.115,-0.09,-0.3,0.95,-4.35,1.33,-6.55
0.117,-0.13,-0.32,0.98,-3.79,3.86,-9.94
0.119,-0.14,-0.33,0.99,-6.75,7.88,-12.64
0.121,-0.11,-0.33,0.99,-8.56,6.43,-15.56
0.124,-0.18,-0.34,1.0,-13.02,-3.6,-13.92
0.126,-0.08,-0.32,0.97,-11.59,1.82,-12.82
0.128,-0.11,-0.33,0.95,-9.27,-0.55,-12.38
0.13,-0.15,-0.34,0.96,-8.21,-4.21,-15.04
0.133,-0.19,-0.37,0.99,-8.9,-1.76,-22.05
0.135,-0.13,-0.37,0.96,-9.31,6.41,-23.28
0.137,-0.1,-0.33,0.95,-8.15,5.8,-22.84
0.139,-0.12,-0.33,0.93,-8.09,1.45,-22.27
0.141,-0.19,-0.36,0.92,-8.75,-1.36,-23.88
0.143,-0.27,-0.36,0.97,-14.46,-5.05,-36.15
0.145,-0.24,-0.39,0.94,-13.56,-0.6,-44.72
0.147,-0.14,-0.37,0.94,-15.3,-5.02,-43.89
0.149,-0.1,-0.37,0.94,-17.68,-10.27,-42.82
0.151,-0.05,-0.37,0.91,-16.73,-13.59,-39.95
0.153,-0.12,-0.4,0.91,-12.69,-16.58,-43.05
0.155,-0.03,-0.39,0.92,-9.66,-14.53,-46.85
0.157,0.09,-0.36,0.92,-4.64,-6.92,-40.12
0.159,0.11,-0.34,0.88,2.98,-1.11,-31.82
0.161,0.12,-0.34,0.88,11.51,3.85,-27.62
0.163,0.1,-0.34,0.94,16.82,-3.76,-24.41
0.165,0.11,-0.31,0.94,18.32,-5.22,-19.66
0.167,0.09,-0.3,0.92,16.55,9.13,-11.82
0.169,0.03,-0.29,0.92,17.76,15.04,-5.68
0.171,0.02,-0.29,0.89,19.62,14.02,-6.2
0.173,0.02,-0.31,0.9,24.98,11.22,-6.11
0.175,0.05,-0.32,1.03,40.55,3.42,0.0
0.177,0.08,-0.25,1.09,33.36,8.84,7.74
0.179,0.09,-0.19,1.02,23.63,-3.13,16.84
0.181,0.02,-0.19,0.99,16.5,-2.64,21.33
0.183,0.01,-0.2,0.97,19.1,-3.11,20.99
0.185,-0.01,-0.18,1.02,15.11,-9.47,16.08
0.187,-0.07,-0.22,1.08,10.75,-8.84,10.4
0.189,-0.06,-0.2,0.98,7.05,0.81,4.73
0.191,0.01,-0.21,0.86,4.67,0.4,6.15
0.193,0.03,-0.22,0.93,5.48,6.78,11.6
0.195,-0.02,-0.22,1.0,-3.6,0.56,11.36
0.196,-0.06,-0.26,0.93,-1.88,1.69,7.98
0.198,-0.05,-0.29,0.98,2.82,-2.08,4.99
0.2,-0.02,-0.3,1.02,2.21,-7.91,4.56
0.202,-0.05,-0.29,1.06,-7.04,-11.37,1.53
0.204,0.01,-0.26,1.0,-18.92,-13.31,-0.27
0.205,-0.02,-0.27,1.0,-17.13,-12.89,3.85
0.207,-0.04,-0.31,1.0,-9.33,-4.23,5.51
0.21,-0.03,-0.28,1.11,-8.67,-10.7,3.04
0.211,0.02,-0.25,1.16,-16.46,-2.96,1.98
0.214,0.09,-0.27,0.99,-27.11,-8.21,5.53
0.216,0.01,-0.26,0.91,-31.79,-28.95,7.54
0.217,0.01,-0.28,0.84,-34.15,-23.53,9.94
0.219,0.06,-0.31,0.74,-29.11,-16.4,12.05
0.221,-0.01,-0.33,0.82,-20.72,-8.98,11.18
0.223,0.01,-0.37,0.87,-3.42,-14.12,8.41
0.225,0.01,-0.38,0.91,4.24,-17.79,4.32
0.227,0.02,-0.38,0.99,1.95,-21.54,1.63
0.229,0.09,-0.39,0.93,8.18,-20.4,3.6
0.231,0.09,-0.4,0.99,4.69,-16.6,9.27
0.232,0.09,-0.4,1.03,8.05,1.33,13.22
0.234,-0.04,-0.36,1.05,9.07,-6.05,10.21
0.236,-0.0,-0.35,1.03,2.82,-23.27,3.13
0.238,0.01,-0.31,0.97,3.54,-17.21,0.56
0.24,-0.01,-0.3,1.0,-0.14,-13.83,-3.05
0.242,0.03,-0.33,1.01,-9.98,-16.37,-8.66
0.244,0.05,-0.29,0.96,-6.0,-13.73,-8.41
0.246,0.06,-0.29,0.94,-6.81,-16.79,-8.38
0.248,0.04,-0.31,0.95,-5.92,-22.6,-9.83
0.249,0.07,-0.32,0.96,-4.89,-22.14,-9.45
0.251,0.1,-0.33,0.94,-5.66,-13.13,-7.79
0.253,0.09,-0.33,1.0,-2.69,-8.15,-7.02
0.255,0.11,-0.35,1.0,-1.69,-6.56,-6.87
0.257,0.16,-0.37,1.03,-1.48,7.65,-4.44
0.259,0.11,-0.36,1.06,-3.94,12.96,-1.85
0.261,0.06,-0.36,1.04,-8.35,10.76,-1.1
0.263,-0.02,-0.35,0.92,-14.92,0.66,-5.6
0.264,-0.04,-0.36,0.92,-15.42,-3.92,-8.52
0.266,-0.09,-0.38,0.96,-18.14,-3.76,-16.81
0.268,-0.08,-0.38,1.0,-19.95,-0.81,-25.47
0.27,-0.06,-0.36,1.01,-23.47,-6.31,-33.13
0.272,-0.01,-0.39,0.99,-19.85,-6.26,-32.7
0.275,-0.02,-0.41,0.99,-21.51,-6.66,-36.64
0.277,-0.01,-0.43,0.97,-16.82,9.04,-42.53
0.279,-0.01,-0.43,0.99,-11.91,21.85,-48.49
0.281,-0.04,-0.38,1.03,-14.53,18.99,-53.83
0.283,-0.02,-0.37,0.95,-13.37,5.77,-53.76
0.284,-0.09,-0.45,0.92,2.82,-29.07,-58.26
0.301,-0.01,-0.29,0.91,3.13,-16.84,-61.24
0.324,-0.02,-0.31,0.94,5.98,-44.87,-74.87
0.343,0.03,-0.26,1.0,8.35,-54.23,-87.01
0.361,0.17,-0.31,0.91,9.33,-0.84,-85.51
0.384,0.18,-0.27,0.98,10.49,-10.84,-83.83
0.403,0.2,-0.26,0.97,13.82,-26.26,-80.12
0.422,0.19,-0.26,0.92,4.76,-36.31,-82.14
0.444,0.23,-0.23,0.98,-15.56,-45.31,-79.05
0.463,0.3,-0.25,0.93,-24.38,-20.27,-77.65
0.481,0.33,-0.25,0.93,-22.61,-7.54,-76.89
0.504,0.33,-0.22,0.92,-25.82,-8.87,-75.33
0.522,0.34,-0.18,0.88,-36.06,-11.02,-74.11
0.545,0.37,-0.2,0.86,-36.18,-7.98,-74.75
0.563,0.33,-0.2,0.9,-34.0,10.24,-71.88
0.582,0.41,-0.24,0.96,-34.78,27.37,-70.31
0.604,0.4,-0.23,0.94,-44.81,32.5,-66.79
0.623,0.38,-0.24,0.89,-53.21,52.21,-61.66
0.642,0.37,-0.26,0.83,-52.02,67.39,-59.1
0.664,0.25,-0.33,0.95,-33.45,65.86,-61.22
0.683,0.2,-0.33,1.0,-24.17,41.53,-68.63
0.701,0.26,-0.31,0.99,-26.64,41.3,-71.31
0.724,0.3,-0.27,0.98,-37.94,42.35,-68.64
0.742,0.27,-0.31,0.94,-34.15,43.98,-66.31
0.76,0.25,-0.35,0.97,-37.07,35.27,-66.41
0.783,0.22,-0.36,0.96,-25.36,20.32,-68.49
0.802,0.21,-0.34,0.98,-20.17,24.4,-70.27
0.825,0.26,-0.33,0.96,-27.86,33.22,-69.15
0.843,0.17,-0.35,0.97,-32.02,39.11,-68.87
0.861,0.18,-0.36,0.97,-25.89,27.83,-72.81
0.884,0.2,-0.33,0.93,-16.73,28.4,-75.53
0.906,0.24,-0.32,0.93,-15.16,37.63,-75.01
0.922,0.24,-0.31,0.96,-17.19,45.66,-73.31
0.944,0.26,-0.32,0.89,-13.92,57.5,-73.39
0.963,0.18,-0.3,0.95,-18.06,49.24,-75.27
0.982,0.22,-0.32,0.94,-4.92,35.36,-77.39
1.004,0.23,-0.29,0.96,-4.0,30.05,-77.37
1.022,0.24,-0.27,0.98,-8.09,25.73,-75.5
1.041,0.2,-0.33,1.02,-10.09,17.24,-75.37
1.064,0.25,-0.29,1.0,-13.92,6.81,-77.28
1.082,0.23,-0.27,0.98,-17.97,-1.36,-76.87
1.105,0.26,-0.26,0.96,-18.08,0.29,-75.02
1.123,0.27,-0.25,0.92,-19.04,4.43,-75.19
1.142,0.29,-0.25,0.9,-17.53,7.63,-77.1
1.165,0.28,-0.27,0.91,-14.64,8.37,-77.97
1.185,0.32,-0.25,0.89,-16.0,8.44,-78.14
1.202,0.31,-0.24,0.88,-17.79,11.54,-76.52
1.225,0.34,-0.24,0.89,-14.75,10.99,-74.56
1.243,0.3,-0.27,0.92,-11.71,7.36,-74.63
1.261,0.28,-0.28,0.98,-13.36,-6.27,-80.73
1.284,0.3,-0.23,0.99,-27.42,-17.21,-85.83
1.302,0.42,-0.21,0.87,-41.66,-16.12,-83.6
1.321,0.4,-0.23,0.78,-39.68,-12.49,-77.63
1.343,0.3,-0.21,0.77,-20.96,-21.5,-78.79
1.362,0.4,-0.27,0.86,-10.32,3.08,-75.62
1.385,0.44,-0.24,0.89,-7.95,-0.66,-73.85
1.403,0.47,-0.25,0.91,-7.83,0.17,-70.34
1.422,0.46,-0.21,0.92,-12.6,-2.38,-66.99
1.445,0.42,-0.2,0.92,-14.76,0.5,-67.33
1.463,0.51,-0.19,0.89,-15.65,8.84,-65.02
1.482,0.51,-0.23,0.89,-15.19,6.2,-63.6
1.505,0.54,-0.22,0.88,-11.63,1.27,-59.77
1.524,0.49,-0.22,0.92,-7.27,1.92,-58.5
1.542,0.47,-0.2,0.95,-13.16,7.27,-52.76
1.564,0.43,-0.2,0.91,-13.66,5.3,-53.98
1.583,0.46,-0.21,0.89,-7.01,8.9,-52.7
1.601,0.47,-0.19,0.82,-1.88,11.73,-50.2
1.624,0.45,-0.22,0.87,2.14,15.19,-48.84
1.643,0.49,-0.2,0.9,-4.6,10.09,-48.09
1.661,0.48,-0.18,0.89,-4.11,7.22,-48.55
1.685,0.49,-0.2,0.94,-4.58,-2.75,-47.5
1.703,0.47,-0.19,0.92,-9.39,-11.85,-47.57
1.721,0.51,-0.18,0.88,-15.24,-8.7,-44.2
1.744,0.49,-0.16,0.89,-20.58,-6.87,-44.5
1.763,0.46,-0.16,0.84,-21.97,-11.68,-47.05
1.781,0.44,-0.17,0.81,-20.89,-18.34,-53.98
1.804,0.58,-0.15,0.75,-16.82,-5.25,-48.99
1.822,0.59,-0.14,0.75,-13.53,-5.59,-48.76
1.841,0.61,-0.15,0.84,-8.79,-1.77,-44.12
1.864,0.66,-0.15,0.84,-4.23,-3.77,-38.2
1.882,0.6,-0.15,0.87,-6.41,-1.3,-32.78
1.905,0.57,-0.15,0.89,-8.63,6.84,-28.7
1.924,0.55,-0.18,0.92,-9.24,16.0,-26.03
1.942,0.51,-0.14,0.95,-10.75,15.86,-24.67
1.965,0.49,-0.18,0.93,-13.47,11.1,-28.05
1.983,0.53,-0.17,0.93,-17.08,12.41,-27.33
2.003,0.5,-0.18,0.93,-18.85,7.47,-25.98
2.025,0.49,-0.18,0.94,-19.08,5.19,-26.11
2.043,0.48,-0.17,0.89,-18.21,5.56,-25.95
2.062,0.47,-0.18,0.88,-15.21,0.43,-26.4
2.085,0.47,-0.18,0.86,-13.16,0.44,-29.51
2.103,0.5,-0.17,0.86,-14.49,6.61,-31.01
2.122,0.53,-0.15,0.83,-15.07,10.76,-30.76
2.144,0.55,-0.16,0.84,-13.94,7.22,-29.63
2.163,0.52,-0.15,0.84,-11.4,5.18,-28.72
2.182,0.56,-0.15,0.84,-10.7,9.68,-27.56
2.204,0.51,-0.15,0.88,-14.64,10.02,-25.54
2.223,0.5,-0.16,0.8,-21.39,9.36,-28.47
2.242,0.55,-0.14,0.78,-21.88,4.82,-30.87
2.264,0.6,-0.15,0.8,-14.73,0.61,-26.43
2.282,0.57,-0.16,0.82,-6.11,-0.53,-24.23
2.302,0.56,-0.15,0.77,-3.3,4.12,-22.64
2.324,0.56,-0.16,0.78,-3.44,4.02,-20.9
2.342,0.66,-0.12,0.8,1.24,-2.5,-13.48
2.361,0.55,-0.15,0.91,9.47,-16.7,-15.56
2.384,0.58,-0.18,0.86,11.28,-9.27,-12.52
2.402,0.54,-0.15,0.83,6.79,-9.73,-11.59
2.421,0.56,-0.16,0.89,12.84,-10.47,-8.31
2.444,0.63,-0.12,0.82,14.02,-2.52,-4.96
2.462,0.56,-0.12,0.85,20.34,3.73,-3.21
2.482,0.51,-0.16,0.93,25.88,3.13,-7.51
2.504,0.68,-0.09,0.64,25.65,53.79,-6.92
2.523,0.52,-0.08,0.82,35.36,41.34,-4.61
2.542,0.51,-0.11,0.82,35.3,73.77,-6.85
2.564,0.51,-0.01,0.83,24.6,79.45,-8.5
2.582,0.54,-0.18,0.72,34.05,65.13,-3.59
2.601,0.41,-0.08,0.97,16.47,28.58,-2.27
2.624,0.37,-0.09,1.0,-3.6,6.03,-8.78
2.643,0.4,-0.04,0.93,-19.92,2.27,-13.07
2.662,0.45,-0.09,0.87,-14.58,6.23,-10.4
2.684,0.37,-0.11,0.94,-11.5,-7.59,-11.82
2.702,0.38,-0.13,0.98,-22.27,-21.07,-13.56
2.721,0.42,-0.09,0.97,-2.76,-21.89,-7.73
2.744,0.43,-0.09,0.89,-14.38,11.45,-6.73
2.762,0.24,-0.09,1.06,-11.88,-8.63,-18.17
2.785,0.29,-0.1,1.08,-26.08,-38.98,-34.29
2.803,0.41,-0.11,0.94,-23.91,-24.89,-36.2
2.822,0.38,-0.05,0.91,-26.82,-39.77,-31.97
2.844,0.49,-0.11,0.95,-16.06,-77.76,-17.48
2.863,0.56,-0.1,0.83,-8.41,-84.76,-15.47
2.882,0.67,-0.1,0.82,-1.44,-62.08,-8.02
2.904,0.63,-0.11,0.82,6.37,-40.17,-1.39
2.923,0.59,-0.09,0.82,11.65,-33.13,0.81
2.941,0.53,-0.08,0.82,-4.08,-12.31,-17.74
2.964,0.6,-0.1,0.85,-4.44,13.37,-18.69
2.983,0.62,-0.09,0.83,5.4,31.16,-16.58
3.002,0.54,-0.1,0.8,7.57,24.84,-10.9
3.024,0.51,-0.09,0.78,11.79,13.8,-11.68
3.043,0.54,-0.07,0.81,11.92,25.34,-13.37
3.062,0.63,-0.06,0.84,17.16,53.19,-12.12
3.084,0.61,-0.05,0.89,22.12,79.74,-6.96
3.102,0.52,-0.06,0.98,22.76,79.25,-4.44
3.122,0.4,-0.04,1.03,10.12,51.77,-6.35
3.144,0.43,-0.04,1.04,1.27,7.28,-4.03
3.163,0.43,-0.04,0.95,-6.23,-6.82,-3.65
3.182,0.44,-0.06,0.92,-10.89,-9.47,-4.5
3.204,0.46,-0.04,0.92,-7.56,-7.01,-2.84
3.223,0.46,-0.06,0.93,-6.29,-2.82,-1.91
3.241,0.4,-0.06,0.93,-3.18,-5.89,-1.92
3.264,0.43,-0.07,0.93,-3.76,-4.93,-3.76
3.283,0.39,-0.06,0.9,-8.05,-4.92,-6.55
3.302,0.36,-0.07,0.94,-12.23,-19.04,-11.04
3.324,0.39,-0.06,0.93,-20.41,-31.95,-17.24
3.343,0.54,-0.07,0.83,-14.12,-33.83,-13.65
3.365,0.48,-0.1,0.97,-22.35,-58.92,-11.42
3.383,0.54,-0.07,0.92,-19.16,-48.27,-10.98
3.402,0.54,-0.07,0.87,-23.6,-26.0,-6.69
3.424,0.51,-0.08,0.81,-8.9,-17.07,-5.15
3.443,0.46,-0.06,0.82,-14.61,-3.92,-13.76
3.462,0.5,-0.06,0.84,-11.19,22.12,-14.34
3.484,0.48,-0.09,0.9,-4.98,36.75,-15.89
3.503,0.49,-0.1,0.92,-5.71,21.24,-13.4
3.522,0.45,-0.1,0.87,-0.24,-9.92,-10.41
3.544,0.42,-0.07,0.86,-3.34,-20.27,-15.19
3.563,0.48,-0.09,0.86,-6.35,-2.02,-19.28
3.582,0.54,-0.07,0.88,-4.08,3.74,-19.59
3.604,0.57,-0.05,0.88,0.12,0.76,-16.92
3.623,0.57,-0.05,0.87,4.17,-0.63,-13.92
3.641,0.54,-0.07,0.83,4.61,9.97,-12.44
3.664,0.53,-0.08,0.89,0.4,20.64,-13.19
3.683,0.49,-0.06,0.94,-3.39,16.6,-13.95
3.701,0.48,-0.06,0.92,-2.08,-3.39,-14.79
3.724,0.45,-0.04,0.88,-5.54,-13.98,-19.83
3.743,0.51,-0.04,0.89,-2.27,-7.05,-19.62
3.761,0.55,-0.04,0.83,-1.27,3.48,-16.9
3.784,0.52,-0.04,0.85,1.79,0.52,-13.13
3.803,0.54,-0.04,0.86,7.28,-1.39,-12.93
3.821,0.57,-0.04,0.9,6.92,13.57,-11.79
3.844,0.51,-0.02,0.97,3.33,11.65,-13.02
3.863,0.55,-0.04,0.96,1.01,-8.46,-12.87
3.881,0.6,-0.03,0.92,0.37,-15.97,-9.79
3.904,0.57,-0.01,0.9,-5.77,-13.42,-8.61
3.922,0.54,-0.02,0.91,-5.34,-16.09,-6.47
3.941,0.56,-0.03,0.89,-6.08,-8.72,-6.63
3.964,0.54,-0.02,0.87,-5.89,-5.53,-5.1
3.983,0.54,-0.03,0.85,-3.3,-8.9,-3.5
