timestamp,acce_x,acce_y,acce_z,gyro_x,gyro_y,gyro_z
0.0,0.27,-0.1,0.92,-7.34,1.28,6.03
0.02,0.25,-0.1,0.93,-7.98,4.92,4.92
0.05,0.23,-0.12,0.95,-8.92,3.36,2.95
0.07,0.21,-0.11,0.97,-10.53,-2.75,1.88
0.1,0.22,-0.12,0.99,-11.07,1.54,4.44
0.12,0.24,-0.13,1.01,-7.85,-1.54,6.63
0.14,0.22,-0.13,0.99,-6.56,-1.21,6.4
0.17,0.24,-0.14,0.99,-5.56,-3.65,5.11
0.19,0.27,-0.15,0.98,-5.04,2.61,6.64
0.21,0.25,-0.14,0.99,-3.42,2.03,4.69
0.24,0.22,-0.12,0.97,-1.77,1.45,1.85
0.26,0.23,-0.13,0.95,-1.31,1.01,1.94
0.28,0.29,-0.14,0.94,-0.15,1.19,4.44
0.31,0.31,-0.14,0.9,0.76,5.13,4.43
0.33,0.34,-0.14,0.92,-1.13,4.9,-0.95
0.35,0.36,-0.16,0.93,-3.21,8.09,-3.63
0.38,0.34,-0.18,0.95,-4.14,8.49,-9.47
0.4,0.36,-0.18,0.97,-5.63,0.78,-17.28
0.43,0.4,-0.18,0.95,-4.67,-4.32,-21.04
0.45,0.43,-0.17,0.93,-2.23,-8.81,-28.64
0.48,0.48,-0.19,0.94,-1.66,-3.79,-34.61
0.5,0.55,-0.16,0.92,-2.6,-3.79,-47.3
0.53,0.49,-0.15,0.92,-1.69,1.82,-60.38
0.55,0.45,-0.14,0.92,-0.81,23.76,-77.66
0.58,0.29,-0.12,0.95,-2.87,21.63,-89.6
0.6,0.15,-0.1,0.99,-13.1,-2.79,-116.09
0.63,0.32,-0.12,0.95,-19.88,-29.16,-113.24
0.65,0.34,-0.11,0.93,-8.82,7.4,-88.92
0.68,0.29,-0.11,0.88,-0.5,52.31,-81.82
0.7,0.3,-0.13,0.87,0.52,43.79,-89.69
0.73,0.28,-0.14,0.88,-6.11,26.46,-100.44
0.75,0.28,-0.16,0.88,-13.15,1.42,-111.1
0.78,0.3,-0.17,0.87,-16.6,8.15,-110.43
0.8,0.32,-0.17,0.86,-11.79,45.18,-100.79
0.83,0.2,-0.18,0.89,-10.44,64.84,-98.6
0.85,0.15,-0.21,0.92,-20.32,55.8,-109.1
0.88,0.16,-0.22,0.96,-26.06,38.66,-107.79
0.9,0.2,-0.22,0.94,-27.73,30.27,-96.64
0.93,0.13,-0.23,0.97,-24.79,38.72,-92.11
0.95,0.02,-0.23,1.03,-21.31,55.89,-94.85
0.98,0.09,-0.23,0.92,-17.86,49.42,-90.66
1.0,0.08,-0.24,0.9,-10.18,50.38,-79.28
1.03,-0.13,-0.23,1.0,-13.48,54.06,-84.27
1.05,-0.18,-0.21,1.03,-18.05,42.15,-86.67
1.08,-0.09,-0.24,0.98,-13.74,33.25,-72.61
1.1,0.02,-0.24,0.94,-7.15,23.59,-48.67
1.13,0.13,-0.25,0.85,-4.31,26.5,-45.22
1.15,0.16,-0.28,0.82,-5.82,29.71,-51.21
1.18,0.15,-0.3,0.84,-9.66,37.31,-58.69
1.2,0.1,-0.32,0.87,-15.63,54.21,-68.63
1.23,0.01,-0.32,0.91,-18.55,57.19,-76.09
1.25,-0.03,-0.32,0.89,-22.37,52.06,-82.53
1.28,-0.1,-0.33,0.98,-22.02,40.92,-85.34
1.3,-0.11,-0.35,0.98,-22.21,48.17,-76.9
1.33,-0.13,-0.33,0.93,-10.63,49.59,-69.66
1.35,-0.11,-0.29,0.88,-2.61,31.85,-70.0
1.38,-0.12,-0.31,0.92,-4.85,25.66,-66.24
1.4,-0.13,-0.33,0.93,-5.19,33.85,-55.63
1.43,-0.15,-0.29,0.92,4.53,34.69,-50.89
1.45,-0.12,-0.28,0.89,5.95,23.82,-49.59
1.48,-0.12,-0.28,0.89,10.63,23.22,-42.66
1.5,-0.1,-0.27,0.88,5.33,5.68,-32.63
1.53,-0.1,-0.25,0.87,6.03,10.58,-27.42
1.55,-0.1,-0.22,0.85,10.27,13.07,-23.07
1.58,-0.12,-0.23,0.85,9.63,15.22,-19.89
1.6,-0.11,-0.24,0.88,4.84,7.94,-13.62
2.59,-0.06,-0.19,0.93,-3.92,4.05,-3.08
2.61,-0.08,-0.19,0.93,-3.79,2.35,-3.54
2.64,-0.07,-0.19,0.93,-3.56,2.5,-3.36
2.66,-0.06,-0.19,0.94,-3.83,3.57,-2.47
2.69,-0.05,-0.18,0.91,-3.37,5.56,-3.66
2.71,-0.07,-0.18,0.91,-1.82,4.35,-3.21
2.74,-0.06,-0.19,0.9,-3.62,2.93,-3.59
2.76,-0.07,-0.18,0.89,-4.03,3.25,-4.27
2.79,-0.06,-0.18,0.91,-4.87,4.93,-5.02
2.81,-0.07,-0.19,0.9,-5.15,6.4,-5.11
2.84,-0.06,-0.2,0.92,-4.37,4.78,-5.44
2.86,-0.06,-0.21,0.92,-3.69,3.82,-5.33
2.89,-0.05,-0.21,0.91,-3.86,4.6,-6.79
2.91,-0.05,-0.21,0.91,-4.14,5.97,-7.51
2.94,-0.06,-0.21,0.92,-4.09,4.17,-8.96
2.96,-0.06,-0.2,0.9,-3.48,5.27,-9.4
2.99,-0.08,-0.19,0.9,-3.86,6.0,-9.76
3.01,-0.1,-0.19,0.92,-3.77,5.07,-9.39
3.04,-0.1,-0.19,0.93,-1.15,0.61,-6.46
3.06,-0.1,-0.2,0.95,0.9,-0.06,-5.54
3.09,-0.08,-0.19,0.92,4.38,-1.54,-4.52
3.11,-0.07,-0.19,0.9,3.59,-2.4,-4.58
3.14,-0.06,-0.19,0.92,2.29,0.44,-5.28
3.16,-0.04,-0.19,0.91,2.4,0.72,-7.16
3.18,-0.04,-0.19,0.91,0.99,3.22,-8.15
3.21,-0.03,-0.19,0.91,-1.5,5.25,-11.08
3.23,-0.03,-0.19,0.92,-2.64,5.48,-12.93
3.26,-0.04,-0.2,0.94,-0.67,4.5,-14.56
3.28,-0.01,-0.21,0.94,0.49,7.44,-15.22
3.31,-0.01,-0.2,0.91,-0.23,8.47,-21.01
3.33,-0.01,-0.21,0.94,-0.5,11.74,-23.82
3.36,-0.05,-0.21,0.95,2.96,13.6,-25.74
3.38,-0.08,-0.2,0.94,4.56,11.88,-26.63
3.41,-0.11,-0.19,0.92,4.82,6.49,-27.11
3.43,-0.11,-0.19,0.89,4.84,6.09,-25.59
3.46,-0.1,-0.18,0.89,4.49,8.12,-25.25
3.48,-0.12,-0.18,0.89,3.27,8.56,-24.61
3.51,-0.1,-0.19,0.9,3.54,8.31,-22.52
3.53,-0.11,-0.2,0.92,5.95,10.08,-21.79
3.56,-0.11,-0.19,0.92,7.3,8.7,-21.27
3.58,-0.09,-0.19,0.9,6.24,4.9,-20.92
3.61,-0.06,-0.2,0.93,3.89,9.19,-21.91
3.63,-0.07,-0.2,0.92,5.1,12.17,-23.71
3.66,-0.07,-0.2,0.94,7.01,11.02,-25.82
3.68,-0.08,-0.19,0.92,8.27,9.76,-27.15
3.71,-0.08,-0.19,0.9,5.83,9.56,-28.26
3.73,-0.08,-0.19,0.92,6.09,11.31,-29.62
3.76,-0.1,-0.18,0.91,8.7,10.14,-30.35
3.78,-0.11,-0.18,0.88,7.19,9.74,-29.77
3.81,-0.13,-0.17,0.9,5.74,10.75,-29.24
3.83,-0.15,-0.17,0.91,6.78,9.3,-28.12
3.86,-0.16,-0.17,0.9,8.43,8.46,-24.69
3.88,-0.16,-0.17,0.9,9.37,4.9,-22.63
3.91,-0.14,-0.16,0.89,8.24,5.02,-21.11
3.93,-0.14,-0.17,0.89,9.08,4.69,-19.74
3.96,-0.13,-0.17,0.88,8.06,6.87,-18.82
3.98,-0.13,-0.17,0.91,7.1,6.41,-17.54
4.01,-0.11,-0.17,0.9,6.76,8.21,-17.8
4.03,-0.11,-0.17,0.91,6.56,9.16,-18.03
4.06,-0.12,-0.16,0.92,7.16,8.02,-18.32
4.08,-0.12,-0.16,0.91,7.5,6.0,-17.86
4.11,-0.13,-0.16,0.91,7.73,4.43,-17.42
4.13,-0.12,-0.15,0.91,7.79,3.48,-17.53
4.16,-0.12,-0.15,0.91,8.46,4.03,-16.76
4.18,-0.11,-0.14,0.91,8.72,4.34,-16.69
4.21,-0.13,-0.14,0.9,9.37,0.95,-16.15
4.23,-0.11,-0.15,0.9,10.32,0.72,-17.25
4.26,-0.12,-0.12,0.88,7.73,-0.34,-18.21
4.28,-0.1,-0.14,0.91,6.67,-3.91,-18.06
4.31,-0.08,-0.13,0.89,7.01,0.44,-19.89
4.33,-0.09,-0.15,0.9,4.63,-2.41,-21.15
4.36,-0.09,-0.15,0.92,5.48,-6.26,-23.34
4.38,-0.08,-0.14,0.9,4.17,-7.36,-25.11
4.41,-0.08,-0.13,0.91,3.24,-12.47,-24.81
4.43,-0.07,-0.14,0.9,2.87,-9.27,-25.65
4.46,-0.07,-0.13,0.91,1.13,-5.27,-27.57
4.48,-0.1,-0.14,0.94,2.26,-1.3,-25.42
4.51,-0.09,-0.11,0.93,2.82,-7.91,-24.56
4.53,-0.1,-0.13,0.93,3.07,-18.34,-21.54
4.56,-0.06,-0.12,0.92,12.2,-12.37,-24.34
4.58,-0.1,-0.12,0.91,9.44,-5.44,-20.15
4.61,-0.06,-0.12,0.93,9.68,-19.18,-15.44
4.63,-0.03,-0.13,0.95,10.0,-31.31,-16.03
4.66,-0.0,-0.12,0.94,13.74,-18.87,-16.6
4.68,-0.01,-0.13,0.94,11.33,-20.41,-18.31
4.71,0.04,-0.1,0.91,8.09,-17.79,-19.76
4.73,0.02,-0.1,0.93,8.99,-11.31,-19.5
4.76,-0.01,-0.1,0.95,5.88,-16.47,-20.61
4.78,-0.01,-0.11,0.95,7.11,-20.9,-17.89
4.81,0.05,-0.09,0.91,7.21,-17.56,-18.08
4.83,0.02,-0.09,0.91,5.62,-18.43,-18.4
4.86,0.08,-0.1,0.94,11.89,-24.37,-19.4
4.88,0.09,-0.07,0.91,10.24,-14.49,-19.24
4.91,0.06,-0.07,0.92,4.08,-16.24,-19.85
4.93,0.1,-0.1,0.94,7.25,-21.02,-17.92
4.96,0.11,-0.07,0.93,6.4,-20.34,-20.95
4.98,0.11,-0.05,0.93,0.99,-15.34,-22.2
5.01,0.07,-0.08,1.01,4.78,-19.54,-20.18
5.03,0.11,-0.07,0.99,7.53,-16.98,-18.27
5.06,0.12,-0.07,0.97,9.48,-13.31,-18.03
5.08,0.13,-0.1,0.98,21.57,-5.54,-12.98
5.11,0.13,-0.06,0.91,14.64,-18.63,-16.09
5.13,0.19,-0.12,0.92,19.47,-9.37,-14.99
5.16,0.18,-0.04,0.89,6.06,-24.67,-19.4
5.18,0.21,-0.05,0.88,-3.27,-15.65,-21.92
5.21,0.2,-0.05,1.0,1.25,-18.14,-20.4
5.23,0.21,-0.02,0.96,1.91,-26.76,-21.68
5.26,0.26,-0.0,0.98,-0.98,-14.46,-20.99
5.28,0.2,-0.01,1.08,1.1,-6.55,-23.74
5.31,0.19,0.03,1.06,5.36,-3.94,-25.39
5.33,0.18,0.02,1.03,4.41,-2.66,-23.77
5.35,0.23,0.0,1.06,11.6,7.76,-24.76
5.38,0.2,0.02,0.99,10.7,13.16,-30.0
5.4,0.18,0.01,0.99,7.42,8.79,-27.04
5.42,0.18,-0.01,0.98,11.79,1.4,-24.79
5.45,0.19,0.02,0.9,4.63,-4.69,-25.34
5.47,0.22,-0.01,0.89,0.53,-0.81,-25.95
5.5,0.25,-0.0,0.86,-10.85,2.82,-31.21
5.52,0.22,-0.01,0.88,-13.65,9.77,-32.95
5.55,0.2,0.0,0.89,-17.79,4.53,-29.94
5.57,0.2,-0.03,0.93,-17.97,-2.09,-28.63
5.6,0.2,-0.02,0.99,-14.29,0.67,-27.66
5.62,0.23,-0.01,0.95,-9.82,3.73,-29.56
5.65,0.21,0.01,0.99,-7.71,8.7,-32.15
5.67,0.19,0.02,1.01,-4.98,7.31,-32.6
5.69,0.2,0.02,0.97,-5.5,8.35,-33.74
5.72,0.24,-0.02,1.0,-0.84,19.68,-38.05
5.74,0.21,0.01,0.95,-1.6,28.72,-41.56
5.77,0.14,0.01,0.95,-10.06,24.17,-40.35
5.79,0.13,-0.01,0.99,-8.66,18.89,-37.48
5.82,0.18,-0.06,0.98,-3.54,17.56,-35.92
5.84,0.15,-0.03,0.94,-5.56,18.34,-39.69
5.87,0.1,-0.05,0.94,-10.12,15.24,-38.43
5.89,0.1,-0.05,0.94,-10.41,10.7,-33.71
5.92,0.14,-0.06,0.95,-8.89,9.53,-31.54
5.94,0.12,-0.04,0.93,-10.38,9.51,-31.05
5.97,0.08,-0.02,0.92,-10.73,6.34,-28.52
5.99,0.08,-0.02,0.94,-13.97,8.44,-26.98
6.02,0.11,-0.04,0.99,-8.08,5.97,-25.63
6.04,0.15,-0.03,0.96,-3.3,11.31,-27.3
6.07,0.14,-0.07,0.99,-4.24,16.47,-30.08
6.09,0.09,-0.07,1.0,-2.72,6.95,-26.11
6.12,0.18,-0.08,0.97,3.39,4.15,-25.86
6.14,0.19,-0.07,0.94,0.9,12.05,-30.84
6.17,0.08,-0.06,0.96,-3.13,11.45,-31.92
6.19,0.07,-0.08,0.97,-2.35,4.87,-27.21
6.22,0.09,-0.06,0.96,-2.27,8.87,-25.82
6.24,0.08,-0.05,0.96,-4.03,12.95,-26.11
6.27,0.07,-0.06,0.96,-2.9,18.92,-26.0
6.29,0.07,-0.06,0.98,-1.04,23.18,-24.49
6.32,0.07,-0.06,0.98,0.12,26.76,-25.91
6.34,0.11,-0.06,0.96,1.24,31.27,-28.64
6.37,0.2,-0.07,0.9,-4.15,61.07,-41.86
6.39,0.09,-0.05,0.91,-10.05,77.3,-52.66
6.42,-0.14,-0.06,1.01,-4.15,44.69,-39.68
6.44,-0.07,-0.06,0.95,-1.88,20.72,-28.7
6.47,0.05,-0.1,0.94,-1.71,29.39,-34.55
6.49,-0.1,-0.08,0.93,-1.37,25.48,-34.49
6.52,-0.13,-0.08,0.92,-1.68,-3.02,-20.72
6.54,-0.05,-0.11,0.93,-0.99,-2.2,-17.82
6.57,-0.04,-0.1,0.89,-2.27,6.43,-20.55
6.59,-0.08,-0.08,0.88,-6.81,6.17,-19.39
6.62,-0.1,-0.09,0.94,-3.69,-5.91,-11.76
6.64,-0.08,-0.08,0.94,-0.61,-10.67,-7.76
6.67,-0.01,-0.07,0.92,0.35,-11.08,-7.82
6.69,0.0,-0.08,0.94,0.92,-8.11,-10.69
6.72,-0.01,-0.06,0.96,5.19,-7.82,-12.18
6.74,-0.02,-0.06,0.96,7.68,-9.86,-13.73
6.77,-0.01,-0.05,0.96,7.44,-1.48,-13.1
6.79,-0.02,-0.05,0.99,7.27,2.29,-15.66
6.82,-0.02,-0.06,0.98,10.05,0.69,-13.51
6.84,0.03,-0.06,0.91,8.93,11.3,-16.73
6.87,-0.0,-0.06,0.88,-1.02,34.35,-30.34
6.89,-0.12,-0.08,0.95,1.92,30.08,-25.62
6.92,-0.09,-0.06,0.91,5.45,10.4,-11.65
6.94,-0.02,-0.07,0.9,0.95,13.89,-12.21
6.97,-0.07,-0.06,0.95,0.32,14.9,-12.15
6.99,-0.08,-0.05,0.95,-1.33,4.84,-7.57
7.02,-0.05,-0.05,0.96,1.04,1.34,-5.56
7.04,-0.06,-0.04,0.94,-0.7,-3.37,-4.09
7.07,-0.04,-0.06,0.94,-1.25,-2.9,-5.74
7.09,-0.04,-0.07,0.96,3.45,-2.92,-5.65
7.12,-0.06,-0.05,0.9,-2.55,-6.26,-2.53
7.14,-0.05,-0.06,0.93,-1.24,-7.73,-2.08
7.17,-0.06,-0.05,0.92,-2.5,-3.48,-1.19
7.19,-0.1,-0.04,0.93,-2.79,-6.27,0.96
7.22,-0.08,-0.04,0.96,-1.82,-6.82,4.11
7.24,0.0,-0.04,0.92,-1.25,-3.37,2.66
7.27,-0.03,-0.02,0.96,0.87,4.32,-3.65
7.29,-0.08,-0.02,0.93,0.08,3.16,-0.5
7.31,-0.08,-0.05,0.94,2.03,-0.5,1.28
7.34,-0.09,-0.05,0.92,-0.55,1.91,3.37
7.36,-0.11,-0.05,0.95,-0.78,6.02,5.31
7.38,-0.16,-0.04,0.94,-1.92,8.64,12.46
7.41,-0.35,-0.02,0.96,-2.53,-10.32,35.95
7.43,-0.24,-0.07,0.96,0.98,-15.68,55.94
7.46,-0.13,-0.02,0.88,-1.56,15.56,66.67
7.48,-0.17,-0.03,0.91,-1.69,25.74,78.27
7.51,-0.2,-0.04,0.9,0.32,18.0,97.31
7.53,-0.19,-0.04,0.83,-6.43,10.2,103.51
