timestamp,acce_x,acce_y,acce_z,gyro_x,gyro_y,gyro_z
0.001,-0.24,-0.03,0.97,1.54,0.52,4.89
0.003,-0.26,-0.0,0.94,2.7,-1.65,5.98
0.004,-0.26,0.01,0.95,0.15,-4.87,6.31
0.005,-0.25,-0.01,0.95,0.21,-6.99,7.34
0.006,-0.22,0.0,0.95,-0.76,-4.93,8.06
0.007,-0.23,-0.0,0.95,-1.18,-6.61,7.71
0.008,-0.22,0.0,0.97,-1.21,-6.4,7.56
0.009,-0.22,-0.01,0.97,-1.11,-3.11,7.59
0.01,-0.25,-0.02,0.97,-0.89,-3.05,7.88
0.011,-0.26,-0.02,0.97,-0.58,-5.07,9.15
0.013,-0.24,-0.02,0.97,0.64,-3.59,9.37
0.014,-0.23,0.0,0.95,-1.07,-2.31,10.52
0.015,-0.22,-0.0,0.96,-1.42,-6.84,10.03
0.016,-0.19,0.0,0.96,-1.57,-7.47,10.5
0.017,-0.18,-0.01,0.98,-0.41,-5.34,8.34
0.018,-0.18,-0.01,0.97,0.76,-5.68,7.6
0.018,-0.18,-0.01,0.98,0.44,-5.08,7.21
0.019,-0.19,-0.01,0.98,1.53,-3.1,7.3
0.02,-0.19,-0.0,0.98,1.63,-3.98,6.84
0.022,-0.17,-0.0,0.98,0.12,-3.42,6.34
0.023,-0.17,-0.01,0.99,1.68,-1.57,5.44
0.024,-0.19,-0.01,0.98,2.75,0.72,5.48
0.025,-0.22,-0.01,0.98,2.93,0.95,5.79
0.026,-0.21,-0.01,0.97,2.49,0.14,6.44
0.026,-0.22,-0.0,0.96,2.12,-1.44,7.42
0.027,-0.21,-0.01,0.97,0.47,-1.08,7.65
0.028,-0.22,-0.01,0.98,1.44,-3.42,7.15
0.029,-0.2,-0.01,0.98,3.11,-6.06,8.18
0.03,-0.18,-0.02,0.98,1.98,-4.23,8.0
0.031,-0.16,-0.01,0.98,3.5,-3.48,7.97
0.032,-0.18,-0.0,0.96,3.36,-2.12,6.89
0.033,-0.19,0.0,0.96,3.27,-3.1,7.15
0.034,-0.17,0.01,0.96,2.43,-3.36,6.98
0.034,-0.19,0.01,0.96,2.61,-3.11,7.28
0.035,-0.21,0.01,0.96,2.41,-4.72,7.1
0.036,-0.21,0.02,0.96,0.73,-5.16,8.53
0.037,-0.22,0.02,0.97,-1.66,-3.94,9.47
0.038,-0.25,-0.0,0.98,0.14,-9.56,9.8
0.039,-0.25,0.01,0.97,0.79,-10.49,13.44
0.04,-0.26,0.01,0.97,-1.68,-7.22,15.15
0.04,-0.27,-0.0,0.98,-0.64,-10.26,17.51
0.041,-0.29,-0.01,0.96,-0.87,-13.36,20.69
0.042,-0.29,-0.01,0.96,-2.75,-13.1,26.89
0.043,-0.28,-0.02,0.98,-3.66,-13.62,29.1
0.044,-0.29,-0.02,0.98,-1.56,-17.01,33.79
0.044,-0.32,-0.02,0.97,-4.52,-17.07,37.97
0.045,-0.32,-0.02,0.97,-4.55,-19.53,42.32
0.046,-0.32,-0.02,0.97,-3.83,-21.11,47.79
0.047,-0.36,-0.03,0.95,-5.24,-21.92,53.76
0.048,-0.37,-0.02,0.94,-6.52,-27.97,60.6
0.048,-0.34,-0.04,0.94,-8.35,-31.18,67.21
0.049,-0.37,-0.04,0.92,-9.3,-30.73,79.33
0.05,-0.38,-0.04,0.91,-15.01,-27.56,95.4
0.051,-0.37,-0.05,0.94,-19.33,-32.49,107.45
0.052,-0.31,-0.09,0.96,-18.96,-40.6,118.82
0.052,-0.22,-0.09,0.93,-15.5,-37.45,125.33
0.053,-0.2,-0.09,0.9,-13.59,-25.28,126.23
0.054,-0.24,-0.08,0.9,-13.71,-19.11,128.15
0.055,-0.23,-0.06,0.91,-14.98,-24.02,133.21
0.055,-0.16,-0.07,0.92,-17.04,-29.3,140.27
0.056,-0.09,-0.09,0.9,-15.63,-22.96,142.9
0.057,-0.1,-0.06,0.85,-15.57,-11.36,145.54
0.058,-0.09,-0.04,0.83,-18.87,-7.11,144.81
0.058,-0.08,-0.04,0.83,-25.83,-12.95,144.58
0.059,-0.02,-0.06,0.84,-31.73,-17.94,144.5
0.06,0.05,-0.11,0.89,-37.69,-16.31,140.0
0.061,0.07,-0.14,0.93,-36.2,-12.79,137.86
0.061,0.1,-0.14,0.97,-37.45,-8.41,137.4
0.062,0.18,-0.17,1.02,-37.68,-7.57,129.33
0.063,0.22,-0.19,1.0,-29.02,-1.97,122.6
0.064,0.11,-0.15,0.93,-29.02,12.79,118.7
0.064,0.05,-0.15,0.96,-37.5,5.91,115.97
0.065,0.11,-0.21,1.04,-35.27,-10.85,111.45
0.066,0.17,-0.24,1.06,-33.82,-7.37,102.29
0.067,0.13,-0.27,1.09,-30.14,-2.99,95.69
0.067,0.1,-0.31,1.14,-25.56,-4.56,98.55
0.068,0.17,-0.33,1.18,-20.09,-1.27,94.53
0.069,0.17,-0.36,1.19,-11.57,-0.21,86.43
0.07,0.17,-0.37,1.15,-6.2,3.02,76.7
0.07,0.11,-0.36,1.13,-4.34,6.7,67.91
0.071,0.03,-0.35,1.11,-2.09,5.88,65.1
0.072,0.01,-0.35,1.07,-1.82,3.97,61.45
0.072,0.02,-0.33,1.04,-0.69,-2.53,59.13
0.074,0.07,-0.29,1.03,5.59,-1.8,0.05
0.074,-0.03,-0.15,0.98,5.54,-4.27,-1.05
0.082,-0.02,-0.15,0.99,3.86,-6.32,-0.92
0.1,-0.02,-0.17,1.01,4.58,-7.36,-0.12
0.124,0.0,-0.16,0.99,6.17,-5.33,-0.15
0.142,0.02,-0.15,0.98,4.49,-1.59,0.64
0.161,-0.01,-0.15,0.98,3.69,0.11,0.56
0.179,-0.01,-0.16,0.99,5.92,-1.15,0.55
0.203,-0.0,-0.15,0.99,5.28,-0.81,-1.16
0.221,0.01,-0.14,0.98,3.98,-1.53,-2.49
0.24,0.03,-0.15,0.98,4.08,-0.09,-2.9
0.263,0.03,-0.15,0.99,4.7,1.79,-4.76
0.282,0.02,-0.14,0.98,3.97,1.44,-6.12
0.3,0.02,-0.13,0.96,2.06,2.58,-7.45
0.324,0.01,-0.15,0.98,1.39,3.02,-9.02
0.342,-0.01,-0.14,0.98,1.33,-0.72,-8.67
0.36,-0.02,-0.16,0.98,-0.6,-2.52,-9.22
0.384,0.0,-0.16,0.98,-1.05,-3.22,-10.87
0.402,-0.01,-0.16,0.98,-1.25,-3.83,-10.38
0.42,-0.03,-0.14,0.98,-3.27,-5.22,-9.21
0.443,-0.02,-0.16,1.0,-5.34,-4.89,-6.46
0.462,-0.04,-0.17,1.0,-4.73,-5.04,-6.52
0.48,-0.01,-0.17,1.0,-3.42,-5.66,-5.51
0.503,0.01,-0.16,1.01,-2.53,-4.11,-6.75
0.522,-0.01,-0.17,1.02,-2.82,-4.35,-5.98
0.54,-0.02,-0.19,1.03,-2.7,-4.38,-6.38
0.564,-0.0,-0.2,1.04,0.66,-1.05,-3.98
0.582,-0.0,-0.19,1.02,1.74,0.09,-6.38
0.6,-0.0,-0.18,1.02,2.11,-3.28,-4.87
0.624,0.02,-0.17,1.0,1.97,1.47,-4.44
0.642,-0.01,-0.18,1.0,0.84,2.37,-5.71
0.661,0.02,-0.16,1.01,3.65,-2.7,-4.73
0.684,0.02,-0.16,1.0,3.04,-0.96,-5.11
0.703,0.02,-0.15,0.99,2.76,-0.06,-4.87
0.721,0.02,-0.16,1.0,3.59,-1.59,-4.82
0.744,0.02,-0.16,1.0,3.51,-0.79,-4.61
0.763,0.03,-0.16,1.0,2.82,0.0,-4.56
0.781,0.02,-0.16,0.98,3.13,-0.95,-4.9
0.8,0.01,-0.17,1.0,3.53,-0.92,-5.11
0.823,0.01,-0.16,1.0,2.95,-0.31,-4.53
0.842,0.0,-0.16,1.0,4.32,-3.24,-3.66
0.86,0.02,-0.15,1.0,2.46,-2.38,-3.13
0.884,0.04,-0.15,1.01,2.98,-2.95,-2.81
0.902,0.04,-0.15,0.99,2.29,-2.63,-2.84
0.92,0.04,-0.15,1.0,1.54,-3.28,-3.63
0.944,0.04,-0.15,1.0,2.05,-2.64,-3.27
0.962,0.02,-0.15,1.0,1.73,-2.85,-3.95
0.981,0.02,-0.15,1.0,3.4,-4.92,-3.45
1.004,0.03,-0.15,1.01,2.53,-2.35,-2.75
1.022,0.02,-0.15,0.99,2.87,0.06,-1.34
1.041,0.01,-0.14,0.99,2.5,-1.16,-0.73
1.059,0.01,-0.13,0.99,2.21,-2.43,-0.05
1.083,0.01,-0.14,0.99,2.49,-0.95,-0.08
1.101,0.01,-0.14,0.99,1.86,-3.37,0.47
1.12,0.04,-0.16,0.99,2.06,-3.44,0.56
1.144,0.04,-0.15,0.98,3.04,-0.72,1.57
1.161,0.04,-0.15,0.97,2.0,1.36,1.18
1.185,0.03,-0.15,0.97,1.86,-1.31,0.73
1.203,0.03,-0.15,0.97,1.11,-0.5,1.63
1.221,0.03,-0.15,0.98,-0.43,0.46,1.24
1.24,0.04,-0.17,0.99,-0.92,-1.15,0.4
1.263,0.05,-0.17,1.0,-0.05,-2.55,-0.82
1.282,0.05,-0.18,1.01,0.61,-0.96,-1.37
1.3,0.06,-0.16,1.0,-0.35,-1.44,-2.85
1.324,0.07,-0.16,1.0,0.56,-2.75,-2.96
1.342,0.08,-0.17,1.02,-0.17,-0.85,-4.37
1.36,0.06,-0.17,1.01,2.0,-0.63,-4.63
1.384,0.07,-0.16,0.99,1.89,-0.96,-5.65
1.402,0.06,-0.16,1.0,0.35,-1.19,-6.72
1.42,0.05,-0.17,1.0,1.11,-1.77,-7.19
1.444,0.05,-0.18,1.0,1.92,-1.92,-7.71
1.462,0.05,-0.16,1.01,2.49,-2.38,-7.44
1.481,0.05,-0.17,1.02,2.11,-2.53,-8.37
1.504,0.06,-0.16,1.01,2.35,-1.74,-8.11
1.523,0.06,-0.16,1.0,2.23,-0.56,-8.34
1.541,0.07,-0.17,1.01,2.34,-1.8,-10.41
1.565,0.07,-0.16,0.99,2.82,-3.05,-10.27
1.583,0.07,-0.15,0.99,1.88,-1.02,-10.9
1.601,0.08,-0.16,0.99,2.61,-1.16,-11.56
1.619,0.08,-0.15,0.99,2.5,-0.63,-12.58
1.643,0.09,-0.14,0.98,0.44,-0.35,-14.34
1.661,0.08,-0.15,0.98,-0.95,-0.31,-16.43
1.684,0.08,-0.15,0.99,-0.67,-0.61,-17.74
1.703,0.07,-0.15,0.97,-1.54,-1.01,-18.23
1.721,0.07,-0.18,1.0,-2.38,-3.88,-17.74
1.745,0.08,-0.19,1.0,0.32,-4.96,-18.21
1.763,0.1,-0.18,1.0,0.9,-1.02,-18.41
1.781,0.11,-0.17,0.99,0.31,1.1,-18.81
1.799,0.1,-0.19,1.0,0.5,0.96,-19.66
1.823,0.11,-0.19,1.0,1.36,0.92,-20.98
1.841,0.13,-0.19,1.0,1.79,1.4,-22.31
1.86,0.12,-0.18,1.0,3.1,3.04,-23.3
1.883,0.13,-0.19,0.99,2.23,3.57,-25.04
1.902,0.14,-0.19,1.0,2.95,2.78,-27.33
1.92,0.14,-0.18,0.98,3.98,4.96,-28.5
1.944,0.12,-0.17,0.99,3.05,6.4,-31.51
1.962,0.13,-0.17,1.0,2.69,4.06,-33.54
1.98,0.12,-0.18,0.99,2.5,4.24,-34.73
2.004,0.11,-0.19,1.0,1.76,6.06,-36.37
2.022,0.11,-0.19,1.0,2.85,4.02,-37.47
2.041,0.12,-0.19,1.01,2.9,3.13,-40.58
2.064,0.1,-0.18,1.02,3.53,1.73,-44.17
2.083,0.1,-0.18,1.01,2.9,-1.19,-45.53
2.101,0.12,-0.19,1.01,2.05,-0.44,-47.88
2.125,0.12,-0.19,1.01,4.52,-0.84,-48.63
2.143,0.11,-0.18,1.01,4.78,-0.32,-48.69
2.161,0.1,-0.19,1.01,4.46,-0.78,-48.9
2.185,0.1,-0.18,1.01,5.6,-1.21,-48.17
2.203,0.11,-0.19,1.0,5.59,2.23,-46.18
2.221,0.12,-0.17,1.0,5.92,5.18,-45.68
2.24,0.12,-0.17,0.99,5.57,4.05,-48.02
2.263,0.11,-0.16,0.97,4.85,4.56,-46.43
2.282,0.13,-0.17,0.99,3.08,9.39,-47.4
2.3,0.12,-0.17,0.98,6.69,6.93,-48.38
2.324,0.13,-0.15,0.99,5.98,4.27,-50.7
2.342,0.14,-0.16,1.0,3.86,6.05,-52.93
2.36,0.14,-0.17,1.01,4.69,11.34,-53.57
2.384,0.1,-0.18,1.01,4.44,14.9,-55.76
2.402,0.08,-0.17,1.03,7.82,9.89,-56.58
2.42,0.11,-0.15,1.0,8.41,9.83,-57.22
2.444,0.1,-0.15,1.02,6.05,12.85,-59.53
2.462,0.09,-0.15,1.02,7.34,13.77,-58.24
2.481,0.08,-0.17,1.03,8.17,17.27,-59.59
2.504,0.05,-0.16,1.02,10.76,17.77,-60.29
2.522,0.02,-0.16,1.02,12.4,17.18,-59.97
2.54,-0.0,-0.12,0.99,13.18,14.87,-57.15
2.563,-0.01,-0.11,0.99,12.47,10.31,-54.0
2.582,0.05,-0.1,0.98,10.58,7.34,-52.67
2.6,0.07,-0.09,0.98,8.98,9.62,-52.29
2.624,0.05,-0.09,0.97,8.35,7.82,-52.52
2.642,0.06,-0.09,0.98,7.71,3.83,-53.24
2.661,0.09,-0.09,0.99,7.65,4.67,-55.25
2.684,0.1,-0.09,1.01,7.51,5.97,-55.74
2.703,0.13,-0.11,1.05,5.8,7.27,-58.27
2.721,0.16,-0.13,1.06,10.14,7.16,-63.56
2.744,0.17,-0.11,1.05,14.46,14.29,-66.09
2.763,0.17,-0.11,1.03,13.88,23.24,-72.26
2.78,0.12,-0.11,1.01,16.72,29.94,-76.46
2.804,0.05,-0.09,0.99,17.08,33.82,-77.76
2.822,-0.02,-0.08,0.98,15.25,31.22,-75.33
2.84,-0.0,-0.09,0.99,16.0,26.35,-74.09
2.864,-0.03,-0.09,0.96,15.86,26.5,-74.82
2.882,-0.08,-0.07,0.96,13.54,24.53,-70.6
2.901,-0.07,-0.08,0.98,9.16,25.05,-66.56
2.923,-0.11,-0.08,1.02,10.38,21.59,-62.02
2.942,-0.08,-0.09,0.99,11.27,19.88,-58.12
2.96,-0.06,-0.09,1.0,11.59,21.01,-57.33
2.983,-0.08,-0.08,0.99,12.99,19.91,-54.82
3.001,-0.07,-0.08,0.99,11.19,19.08,-53.76
3.025,-0.08,-0.08,0.99,11.27,17.39,-52.06
3.043,-0.04,-0.06,0.99,11.13,18.08,-51.91
3.061,-0.03,-0.07,1.0,11.6,18.34,-53.95
3.084,-0.01,-0.05,1.0,13.28,19.63,-55.82
3.102,0.01,-0.03,0.99,10.55,22.66,-59.34
3.12,-0.02,-0.04,1.0,10.6,20.72,-63.3
3.144,-0.01,-0.05,1.0,12.26,24.67,-64.0
3.162,-0.03,-0.06,0.98,12.49,32.18,-64.9
3.18,-0.06,-0.03,0.97,13.69,31.86,-66.69
3.203,-0.07,-0.03,0.99,10.55,29.8,-67.94
3.221,-0.07,-0.06,0.99,11.33,30.12,-70.47
3.24,-0.07,-0.06,0.97,13.82,37.45,-70.37
3.263,-0.14,-0.07,0.93,12.49,45.07,-73.24
3.281,-0.16,-0.05,0.93,11.39,43.74,-71.08
3.304,-0.19,-0.08,0.91,10.66,44.7,-71.88
3.323,-0.29,-0.08,0.91,10.53,43.51,-69.66
3.341,-0.33,-0.09,0.92,5.22,40.09,-63.71
3.364,-0.34,-0.12,0.95,5.95,39.31,-59.37
3.382,-0.4,-0.12,0.94,8.5,35.76,-54.31
3.401,-0.45,-0.1,0.93,7.98,29.45,-44.82
3.424,-0.45,-0.11,0.93,7.22,26.35,-37.37
3.442,-0.48,-0.1,0.92,6.66,19.6,-30.58
3.461,-0.46,-0.09,0.93,4.58,11.86,-24.63
3.484,-0.43,-0.08,0.94,-4.75,25.3,-25.13
3.502,-0.43,-0.08,0.88,5.05,5.18,-14.03
3.52,-0.42,-0.07,0.9,7.94,-4.08,-8.96
3.544,-0.43,-0.05,0.9,3.66,-5.02,-5.18
3.562,-0.38,-0.05,0.92,1.82,-8.72,-0.82
3.581,-0.32,-0.05,0.92,0.7,-6.78,0.12
3.604,-0.28,-0.05,0.93,1.25,-6.44,-0.49
3.622,-0.27,-0.03,0.93,0.67,-4.96,0.82
3.641,-0.28,-0.05,0.95,-0.43,-2.06,0.08
3.664,-0.27,-0.06,0.95,1.21,0.55,1.63
3.683,-0.31,-0.06,0.92,0.73,2.02,3.34
3.701,-0.32,-0.06,0.93,-1.91,1.4,4.12
3.72,-0.3,-0.06,0.95,-0.41,-1.82,5.31
3.743,-0.3,-0.06,0.94,-1.11,-2.6,6.46
3.761,-0.27,-0.05,0.96,-3.19,-3.37,8.58
3.779,-0.23,-0.06,0.97,-2.85,-1.22,7.65
3.803,-0.25,-0.07,0.98,-0.02,-2.14,6.05
3.821,-0.25,-0.06,0.96,0.49,-0.35,6.76
3.84,-0.27,-0.06,0.94,-0.7,0.32,6.64
3.863,-0.3,-0.05,0.94,0.11,-3.11,8.34
3.882,-0.29,-0.05,0.94,-2.27,-7.65,8.64
3.9,-0.24,-0.05,0.96,-1.47,-7.48,8.38
3.923,-0.23,-0.05,0.97,-1.4,-5.45,7.8
3.942,-0.23,-0.06,0.98,-0.96,-4.4,7.62
3.96,-0.22,-0.05,0.98,-0.46,-2.87,6.99
3.984,-0.24,-0.08,0.99,0.23,-0.53,4.15
4.002,-0.26,-0.07,0.97,2.55,-2.2,4.92
