timestamp,acce_x,acce_y,acce_z,gyro_x,gyro_y,gyro_z
0.002,0.09,-0.03,1.01,5.3,0.14,-3.39
0.004,0.1,-0.01,0.99,2.67,4.44,-3.42
0.005,0.08,-0.02,1.01,1.1,6.32,-5.28
0.007,0.08,-0.03,1.0,0.73,2.89,-6.63
0.008,0.05,-0.03,1.01,-0.63,-3.82,-7.16
0.009,0.06,-0.03,1.0,1.88,3.88,-6.12
0.011,0.06,-0.02,1.02,-2.49,11.01,-5.08
0.012,0.04,-0.03,1.02,-1.57,2.0,-6.49
0.013,0.03,-0.03,1.03,-0.23,-4.87,-5.68
0.014,0.04,-0.04,1.01,-0.46,2.61,-3.05
0.016,0.04,-0.05,1.03,0.09,5.6,-2.69
0.017,0.04,-0.04,1.03,2.15,-0.92,-2.29
0.018,0.05,-0.02,1.02,0.81,-0.17,-2.66
0.019,0.06,-0.02,1.01,-0.92,3.04,-1.69
0.021,0.06,-0.03,1.02,-0.96,2.5,-2.58
0.022,0.05,-0.03,1.03,-0.5,-0.87,-3.13
0.023,0.08,-0.04,1.01,-1.15,3.24,-1.39
0.024,0.05,-0.04,1.03,-0.02,-0.44,-3.88
0.025,0.06,-0.04,1.01,0.52,-0.79,-1.76
0.026,0.08,-0.02,1.02,-2.98,10.11,-2.49
0.028,0.06,-0.03,1.04,-0.63,1.4,-3.83
0.029,0.09,-0.02,0.99,-1.13,4.27,-2.95
0.03,0.07,-0.04,1.01,-5.71,10.05,-5.65
0.031,0.06,-0.06,1.05,-1.85,0.7,-5.33
0.032,0.06,-0.06,1.03,-2.05,5.51,-6.61
0.033,0.04,-0.06,1.04,-0.63,4.76,-3.57
0.034,0.04,-0.06,1.04,-0.05,5.71,-5.1
0.034,0.04,-0.05,1.02,1.5,3.54,-4.24
0.035,0.05,-0.04,1.02,-0.32,4.06,-4.89
0.036,0.04,-0.03,1.02,1.47,4.2,-5.56
0.037,0.03,-0.04,1.02,-1.02,3.83,-4.61
0.038,0.02,-0.04,1.01,-0.02,2.66,-2.66
0.039,0.07,-0.04,1.02,-0.37,4.75,-1.79
0.04,0.06,-0.05,1.03,2.58,3.22,-4.0
0.041,0.07,-0.05,1.02,2.98,2.66,-6.06
0.042,0.07,-0.06,1.02,2.46,2.32,-7.22
0.043,0.06,-0.07,1.0,2.76,4.32,-7.68
0.044,0.08,-0.07,1.02,1.76,9.05,-6.58
0.044,0.09,-0.08,1.02,5.83,5.97,-8.37
0.045,0.09,-0.08,1.0,8.75,4.56,-11.71
0.046,0.12,-0.06,1.0,4.23,8.14,-10.23
0.047,0.11,-0.05,0.97,3.95,12.72,-15.57
0.048,0.1,-0.03,0.96,-1.28,10.27,-20.32
0.049,0.07,-0.03,0.99,-4.56,4.55,-22.75
0.05,0.04,-0.04,1.0,-3.53,5.11,-20.96
0.051,0.07,-0.04,1.07,-3.98,3.97,-18.64
0.051,0.04,-0.05,1.02,2.46,1.07,-23.21
0.052,0.01,-0.05,1.02,-1.36,-2.23,-24.75
0.053,0.05,-0.05,1.04,-2.08,-0.89,-24.55
0.054,0.02,-0.04,1.06,-3.18,-2.84,-25.01
0.055,-0.0,-0.04,1.08,-0.93,-6.95,-21.57
0.056,-0.04,-0.05,1.15,0.47,-11.02,-14.44
0.057,-0.01,-0.05,1.08,8.21,-8.31,-12.92
0.057,0.01,-0.05,1.07,6.73,-7.1,-14.44
0.058,-0.01,-0.04,1.08,5.37,-9.92,-16.02
0.059,-0.05,-0.03,1.07,5.8,-12.15,-10.09
0.06,-0.02,-0.03,1.08,7.79,-6.17,-4.79
0.061,-0.01,-0.04,1.08,10.72,-10.46,-4.58
0.061,-0.01,-0.03,1.06,13.82,-16.67,-1.19
0.062,0.02,-0.02,1.01,12.23,-6.11,2.35
0.063,0.04,-0.01,1.0,10.23,-3.42,2.98
0.064,0.04,0.0,0.99,7.42,-4.34,-2.24
0.065,0.03,0.02,0.97,3.79,-6.41,-4.75
0.065,0.02,0.01,0.95,0.89,-3.68,-2.38
0.066,0.03,0.0,0.99,-2.85,0.58,0.17
0.067,0.03,-0.01,0.99,-2.02,-1.66,0.53
0.068,0.04,-0.02,0.98,-2.75,-2.4,-0.24
0.068,0.04,-0.01,0.96,-4.44,0.21,0.06
0.069,0.03,-0.03,0.99,-6.78,0.52,1.07
0.07,0.03,-0.03,0.98,-6.95,0.17,1.56
0.071,0.05,-0.05,1.01,-9.01,2.53,0.37
0.071,0.01,-0.05,1.02,-8.63,-1.22,-0.95
0.072,-0.02,-0.07,1.05,-9.6,-1.82,-0.24
0.073,0.0,-0.1,1.05,-7.66,2.92,1.98
0.074,-0.02,-0.11,1.07,-6.47,4.93,3.01
0.074,-0.0,-0.11,1.08,-3.94,4.69,3.92
0.075,0.01,-0.1,1.06,-1.22,3.25,4.06
0.076,0.03,-0.1,1.05,0.03,4.34,3.91
0.077,0.04,-0.09,1.04,1.48,3.27,3.54
0.077,0.06,-0.08,1.02,0.26,4.41,1.44
0.078,0.06,-0.09,1.02,-0.73,2.96,-2.2
0.079,0.05,-0.09,1.02,-0.66,-1.18,-5.18
0.08,0.04,-0.09,1.04,-0.5,-1.98,-6.82
0.08,0.01,-0.08,1.05,0.41,-1.5,-7.44
0.085,-0.01,-0.09,1.06,-0.63,-2.32,-6.81
0.108,-0.01,-0.1,1.08,-1.11,-3.19,-5.04
0.126,-0.01,-0.1,1.1,-0.23,-3.63,-2.26
0.144,0.02,-0.09,1.11,3.42,-2.72,0.34
0.167,0.04,-0.09,1.08,6.76,-2.84,0.11
0.185,0.07,-0.09,1.05,7.39,-2.12,-0.43
0.209,0.08,-0.08,1.01,6.35,1.1,-0.93
0.227,0.08,-0.07,1.01,5.04,2.02,-4.35
0.245,0.06,-0.03,0.98,4.9,-2.18,-6.82
0.268,0.04,-0.02,0.98,1.74,-1.53,-6.49
0.286,0.03,-0.04,0.99,-0.92,2.49,-6.03
0.304,0.01,-0.06,0.99,-3.66,1.33,-7.94
0.327,-0.02,-0.08,1.03,-2.29,-2.58,-7.62
0.345,-0.02,-0.08,1.04,1.27,-0.49,-7.69
0.369,-0.03,-0.07,1.03,1.08,2.08,-6.93
0.387,-0.05,-0.09,1.04,-2.2,3.04,-4.15
0.404,-0.04,-0.1,1.06,-0.29,2.67,-1.13
0.428,-0.05,-0.08,1.06,3.47,1.19,1.21
0.446,-0.03,-0.06,1.04,2.64,1.66,3.33
0.464,-0.0,-0.06,1.03,-1.18,2.7,3.13
0.487,-0.04,-0.07,1.05,-3.83,-0.82,4.87
0.505,-0.06,-0.1,1.1,0.29,-3.4,10.63
0.528,-0.06,-0.11,1.11,10.53,-3.79,15.85
0.546,-0.05,-0.08,1.11,18.52,-5.47,20.98
0.564,-0.04,-0.07,1.06,24.06,-3.79,25.74
0.587,-0.03,-0.04,1.03,24.53,-1.22,28.34
0.605,-0.04,-0.04,1.0,24.23,-0.98,31.47
0.628,-0.04,-0.03,0.99,22.78,2.56,33.74
0.646,-0.03,-0.02,0.98,23.21,4.73,36.15
0.664,-0.03,0.0,0.93,23.4,5.01,39.1
0.687,-0.06,0.06,0.89,13.65,14.53,42.27
0.706,-0.01,0.02,0.87,14.4,10.6,45.59
0.729,-0.0,0.02,0.89,12.58,7.44,46.6
0.747,0.04,0.02,0.86,6.98,14.44,46.95
0.765,0.08,0.02,0.89,4.49,17.59,46.02
0.788,0.15,0.02,0.88,5.73,14.38,44.05
0.806,0.16,0.02,0.87,3.97,20.31,37.68
0.824,0.1,0.02,0.85,1.19,24.27,33.98
0.848,0.02,0.01,0.84,0.43,31.13,33.45
0.866,-0.02,0.02,0.86,0.67,35.63,37.05
0.884,0.0,0.02,0.88,6.02,36.27,36.14
0.907,-0.05,0.05,0.86,11.66,25.82,32.27
0.925,-0.07,0.09,0.8,2.12,22.35,33.94
0.948,-0.04,0.11,0.8,-15.83,25.27,36.15
0.966,0.03,0.06,0.88,-29.97,22.4,36.27
0.985,0.05,-0.01,1.0,-29.68,16.37,28.82
1.007,0.06,-0.02,1.02,-21.73,18.63,27.45
1.025,0.04,-0.01,0.99,-15.97,28.17,22.14
1.048,0.02,0.0,0.97,-13.68,31.57,23.54
1.066,0.02,-0.01,0.96,-11.68,36.08,19.04
1.084,-0.02,-0.06,0.98,-7.39,19.8,13.57
1.107,0.01,-0.06,0.95,-8.11,13.39,9.66
1.126,0.01,-0.08,0.99,-7.33,10.0,6.26
1.149,0.02,-0.08,0.97,-1.69,9.19,3.47
1.167,-0.03,-0.04,0.93,-2.03,4.12,-0.26
1.185,-0.05,-0.07,0.95,-8.85,-3.82,2.2
1.208,-0.04,-0.15,1.1,-1.53,-13.22,8.79
1.226,0.02,-0.14,1.08,10.66,-5.11,11.31
1.244,0.02,-0.09,0.92,17.1,2.85,6.89
1.267,0.05,-0.06,0.85,-1.6,15.86,1.59
1.285,0.02,-0.14,0.99,-16.7,11.16,-7.45
1.308,-0.01,-0.19,1.06,-3.6,3.04,-10.37
1.326,-0.09,-0.11,0.98,1.16,6.17,-13.44
1.344,-0.13,-0.03,0.87,-7.47,-0.84,-12.08
1.367,-0.05,-0.06,0.88,-27.56,-2.37,-14.44
1.384,-0.03,-0.15,1.04,-30.11,-11.28,-21.01
1.407,-0.06,-0.16,1.01,-21.97,-22.14,-18.34
1.425,-0.01,-0.12,0.97,-25.37,-14.79,-18.0
1.448,-0.0,-0.13,0.95,-32.35,-24.46,-20.27
1.465,0.02,-0.17,1.05,-42.49,-38.32,-19.97
1.488,0.05,-0.25,1.12,-41.74,-33.16,-19.98
1.506,0.01,-0.26,1.16,-29.92,-37.53,-16.11
1.524,0.06,-0.23,1.08,-22.69,-38.37,-14.64
1.547,0.13,-0.2,1.04,-31.05,-38.81,-14.69
1.564,0.18,-0.25,1.11,-41.47,-25.33,-22.26
1.587,0.16,-0.29,1.16,-35.97,-23.08,-31.47
1.605,0.13,-0.31,1.18,-28.95,-20.52,-36.41
1.628,0.05,-0.29,1.16,-21.66,-17.94,-36.5
1.646,0.06,-0.27,1.15,-24.03,-16.7,-35.89
1.669,0.1,-0.28,1.14,-19.77,-11.42,-39.98
1.687,0.07,-0.27,1.14,-19.07,-6.12,-44.08
1.704,0.07,-0.25,1.13,-20.34,-5.27,-41.24
1.728,0.08,-0.29,1.17,-20.6,-6.64,-40.96
1.745,0.16,-0.3,1.14,-17.1,-1.02,-51.01
1.768,0.12,-0.27,1.07,-21.69,4.98,-58.82
1.786,0.04,-0.29,1.14,-27.11,0.89,-60.66
1.804,0.11,-0.29,1.11,-19.92,-1.94,-60.92
1.827,0.13,-0.31,1.09,-23.47,8.99,-66.85
1.845,0.04,-0.31,1.09,-24.38,4.56,-67.07
1.868,0.06,-0.35,1.13,-25.6,1.53,-64.17
1.886,0.07,-0.39,1.17,-17.19,6.52,-61.57
1.904,0.08,-0.39,1.18,-6.56,9.37,-59.47
1.927,0.09,-0.36,1.13,-0.76,8.0,-57.86
1.945,0.12,-0.35,1.1,1.11,7.16,-57.97
1.968,0.15,-0.34,1.11,-0.78,9.42,-58.49
1.986,0.15,-0.35,1.11,0.14,10.44,-60.79
2.004,0.11,-0.35,1.12,5.34,5.73,-61.98
2.027,0.09,-0.33,1.04,6.2,5.36,-61.56
2.046,0.09,-0.32,1.05,1.53,6.41,-59.83
2.069,0.08,-0.37,1.14,2.63,8.05,-56.56
2.087,0.07,-0.38,1.15,13.1,9.13,-54.47
2.105,0.06,-0.34,1.06,12.55,20.53,-53.31
2.128,0.01,-0.35,1.1,5.4,20.69,-48.44
2.146,0.02,-0.36,1.22,14.79,4.52,-42.75
2.164,0.04,-0.36,1.16,30.82,2.53,-42.58
2.187,0.02,-0.31,1.11,38.05,7.56,-43.54
2.205,-0.0,-0.28,1.09,36.85,6.82,-41.4
2.228,-0.02,-0.29,1.09,37.88,6.24,-39.37
2.247,-0.08,-0.28,1.07,41.95,7.13,-34.27
2.266,-0.06,-0.25,1.06,40.78,9.66,-26.18
2.287,-0.07,-0.24,1.07,33.18,6.64,-20.99
2.305,-0.06,-0.24,1.09,41.82,4.82,-21.82
2.328,-0.07,-0.18,1.03,34.95,10.5,-18.08
2.346,-0.02,-0.18,1.02,20.49,15.21,-18.44
2.369,-0.08,-0.24,1.14,18.29,2.66,-13.74
2.386,-0.04,-0.21,1.1,26.63,8.79,-10.84
2.404,-0.03,-0.17,1.01,21.13,24.78,-9.56
2.427,-0.03,-0.13,0.95,6.4,30.47,-11.13
2.445,-0.07,-0.16,0.99,-10.76,25.66,-10.55
2.468,-0.06,-0.34,1.22,14.85,10.0,-9.5
2.486,-0.07,-0.27,1.12,43.68,5.62,-6.5
2.504,-0.1,-0.18,0.99,42.64,25.45,-0.93
2.527,-0.08,-0.14,0.94,33.05,33.19,7.19
2.545,-0.06,-0.13,0.92,19.85,28.24,8.35
2.568,-0.08,-0.12,0.94,10.79,19.82,9.62
2.587,-0.05,-0.14,0.96,7.88,11.34,12.05
2.604,-0.02,-0.15,0.98,10.6,12.06,15.33
2.628,-0.01,-0.14,0.95,16.03,16.38,19.71
2.645,-0.01,-0.13,0.93,13.8,16.61,20.46
2.669,-0.02,-0.12,0.94,13.07,9.91,20.38
2.687,-0.02,-0.12,0.96,15.76,9.83,21.8
2.704,-0.02,-0.12,1.03,22.79,14.81,31.6
2.727,0.03,-0.1,0.98,31.68,19.65,32.43
2.745,0.03,-0.07,0.93,26.67,16.85,26.95
2.768,-0.01,-0.04,0.93,15.16,14.44,23.89
2.787,-0.06,-0.04,0.93,5.98,19.21,24.93
2.804,-0.13,-0.06,0.98,0.82,17.13,28.44
2.828,-0.11,-0.08,1.02,6.37,5.31,32.2
2.846,-0.04,-0.07,1.03,14.67,3.31,33.37
2.869,-0.02,-0.05,1.02,18.46,3.25,31.24
2.887,-0.02,-0.02,0.98,20.12,0.47,33.91
2.905,-0.06,0.01,0.96,17.02,2.17,35.53
2.928,-0.06,0.01,0.96,12.98,-2.49,36.26
2.946,-0.05,0.01,0.97,14.17,-12.56,37.08
2.964,0.01,0.04,0.96,16.82,-13.39,38.29
2.987,-0.01,0.05,0.94,23.37,-8.11,36.08
3.005,-0.01,0.05,0.88,24.03,-7.57,35.56
3.028,-0.03,0.09,0.85,18.92,-6.4,37.39
3.046,-0.03,0.1,0.83,14.53,-7.79,38.37
3.064,-0.01,0.1,0.82,6.92,-6.44,39.62
3.087,-0.01,0.08,0.85,-0.2,-8.05,39.31
3.105,0.01,0.1,0.87,-0.95,-9.57,41.45
3.129,0.06,0.11,0.88,-2.93,-5.53,41.28
3.147,0.05,0.1,0.87,-6.08,-7.1,39.89
3.165,0.06,0.06,0.88,-13.47,-7.91,38.85
3.188,0.04,0.05,0.91,-18.79,-7.53,33.4
3.206,-0.03,0.01,0.97,-18.46,-13.33,33.24
3.229,-0.01,-0.01,0.99,-15.15,-10.92,38.26
3.246,-0.01,-0.03,1.02,-10.03,-6.17,43.45
3.264,-0.0,-0.03,1.02,-1.3,-3.45,45.89
3.287,0.01,-0.02,0.99,1.73,-3.73,45.48
3.305,0.0,-0.01,0.98,0.55,-6.58,44.35
3.324,0.03,0.0,0.95,0.29,-3.28,46.21
3.347,0.06,0.01,0.98,-1.8,0.85,47.45
3.365,0.12,0.01,1.0,-0.18,-3.68,44.43
3.388,0.16,0.03,1.01,0.43,-5.01,35.88
3.406,0.14,0.04,1.03,2.7,-6.81,29.21
3.425,0.12,0.04,0.99,1.18,-7.91,28.24
3.448,0.13,0.07,0.96,-2.35,-1.45,30.31
3.466,0.16,0.09,0.94,-7.48,7.66,30.05
3.484,0.16,0.1,0.98,-14.58,8.05,24.11
3.507,0.16,0.04,1.05,-18.24,-2.96,16.02
3.525,0.12,-0.01,1.07,-13.68,-13.83,12.84
3.548,0.13,-0.02,1.05,-10.44,-3.69,11.79
3.566,0.08,-0.05,1.07,-9.21,-1.34,9.94
3.584,0.1,-0.07,1.05,-4.92,-4.72,10.92
3.607,0.09,-0.08,1.04,-7.4,-0.6,9.22
3.626,0.08,-0.09,1.06,-7.82,-3.51,10.02
3.649,0.08,-0.09,1.08,-6.02,-4.81,10.12
3.666,0.12,-0.08,1.03,-2.11,-0.76,10.46
3.685,0.13,-0.06,1.03,-5.25,-0.44,8.7
3.708,0.16,-0.06,1.03,-6.23,-0.44,6.0
3.726,0.12,-0.06,1.02,-5.31,0.82,3.51
3.744,0.12,-0.05,1.03,-2.38,1.85,2.05
3.767,0.1,-0.04,1.02,-2.89,1.56,0.82
3.785,0.09,-0.04,1.04,-4.05,0.69,0.29
3.809,0.06,-0.04,1.05,-1.74,0.21,-0.73
3.827,0.06,-0.02,1.02,-0.38,1.15,1.27
3.845,0.07,-0.03,1.02,-3.39,6.26,-0.49
3.868,0.04,-0.03,1.03,-3.65,-4.23,-2.58
3.886,0.05,-0.04,1.03,-4.93,-3.65,-1.54
3.904,0.04,-0.06,1.07,-5.34,3.74,-0.43
3.928,0.04,-0.06,1.05,0.5,4.32,0.24
3.946,0.04,-0.06,1.05,-0.05,3.5,-1.89
3.964,0.03,-0.04,1.03,2.15,0.69,-1.22
3.987,0.04,-0.04,1.01,-0.2,6.47,-1.24
4.005,0.02,-0.04,1.02,-0.31,4.81,-0.4
