timestamp,acce_x,acce_y,acce_z,gyro_x,gyro_y,gyro_z
0.004,0.09,-0.36,0.91,2.26,-5.79,14.79
0.01,0.03,-0.37,0.93,6.18,-20.32,16.37
0.016,0.08,-0.39,0.94,14.03,-21.44,11.07
0.022,0.06,-0.34,0.88,15.1,-10.46,1.8
0.028,0.15,-0.31,0.95,8.76,-6.52,-2.18
0.032,0.19,-0.3,0.92,5.68,-5.01,-2.99
0.036,0.16,-0.3,0.98,10.05,-1.44,4.47
0.041,0.22,-0.29,0.92,15.68,-12.99,8.26
0.045,0.13,-0.25,0.96,15.1,-13.92,10.7
0.049,0.08,-0.27,1.0,12.47,-18.21,9.13
0.053,0.18,-0.27,1.0,2.7,-13.65,-0.43
0.057,0.26,-0.25,0.94,-5.62,-7.39,-6.69
0.061,0.23,-0.29,0.9,-9.27,4.29,0.31
0.066,0.1,-0.31,0.93,-5.34,5.95,8.32
0.073,0.11,-0.3,0.9,-3.66,-0.87,7.47
0.077,0.06,-0.31,0.99,3.11,-6.85,7.3
0.084,0.09,-0.3,1.01,12.72,-12.17,6.02
0.09,0.02,-0.28,1.08,16.72,-3.45,9.54
0.094,0.05,-0.28,1.07,10.69,-5.89,8.89
0.098,0.05,-0.29,1.03,-0.03,-4.11,1.82
0.1,0.08,-0.3,1.04,-7.98,-8.27,-4.29
0.102,0.08,-0.3,1.06,-10.92,0.76,-7.94
0.104,0.09,-0.32,1.03,-9.51,1.3,-5.57
0.106,0.05,-0.29,1.05,-6.69,1.1,-5.37
0.109,0.07,-0.3,1.03,-5.77,-4.15,-4.96
0.111,0.11,-0.28,1.05,-4.08,-12.2,-7.95
0.113,0.16,-0.28,0.99,-5.88,-14.17,-8.43
0.115,0.18,-0.3,1.01,-8.4,-9.22,-11.45
0.117,0.21,-0.31,0.98,-10.12,-5.57,-12.18
0.119,0.12,-0.29,1.02,-11.07,-0.98,-12.38
0.121,0.18,-0.32,0.97,-13.11,-7.07,-14.03
0.122,0.22,-0.3,0.96,-13.47,-7.48,-20.21
0.124,0.21,-0.3,0.97,-8.98,-1.97,-18.53
0.126,0.25,-0.3,0.96,-7.1,3.48,-17.5
0.128,0.21,-0.32,0.96,-6.87,2.66,-12.52
0.13,0.22,-0.35,0.93,-7.63,-2.14,-10.69
0.132,0.2,-0.31,0.97,-8.27,-0.61,-13.65
0.134,0.22,-0.3,0.89,-7.63,-0.85,-13.53
0.136,0.22,-0.32,0.92,-8.75,4.27,-15.05
0.138,0.2,-0.36,0.93,-7.39,7.71,-11.57
0.139,0.16,-0.38,0.91,-6.11,19.95,-13.25
0.141,0.11,-0.36,0.9,-5.56,19.45,-16.93
0.143,0.16,-0.35,0.9,-8.2,12.84,-21.3
0.145,0.18,-0.32,0.91,-8.34,8.6,-24.96
0.147,0.17,-0.31,0.93,-7.31,8.24,-20.93
0.149,0.23,-0.28,0.93,-2.34,4.24,-19.74
0.151,0.27,-0.26,0.91,2.17,-0.52,-17.24
0.153,0.27,-0.28,0.93,3.02,-0.96,-12.5
0.155,0.21,-0.27,0.97,3.31,5.76,-10.69
0.157,0.18,-0.3,0.98,0.12,6.76,-11.66
0.159,0.2,-0.34,0.95,-3.24,8.67,-13.47
0.161,0.16,-0.36,0.91,-9.04,12.87,-11.69
0.163,0.13,-0.36,0.94,-6.96,8.5,-9.97
0.165,0.15,-0.34,0.93,-12.2,1.98,-12.92
0.167,0.11,-0.33,0.96,-9.19,-10.21,-12.32
0.169,0.16,-0.31,0.96,-9.92,-2.63,-18.7
0.171,0.26,-0.29,0.94,-10.61,2.93,-25.22
0.173,0.25,-0.28,0.96,-7.24,6.06,-21.92
0.175,0.14,-0.29,0.97,-4.55,2.87,-13.21
0.177,0.13,-0.32,0.96,-4.26,-7.16,-8.87
0.179,0.21,-0.35,0.93,-3.91,-12.95,-13.62
0.181,0.24,-0.36,0.89,-4.49,-7.97,-16.35
0.183,0.18,-0.38,0.91,-1.63,-0.78,-12.69
0.185,0.17,-0.39,0.95,3.22,-6.61,-9.92
0.186,0.23,-0.4,0.95,2.78,-11.21,-12.61
0.188,0.27,-0.39,0.94,3.36,-7.53,-15.59
0.19,0.25,-0.35,0.98,3.25,-2.66,-14.98
0.192,0.3,-0.34,0.97,0.52,-8.46,-15.04
0.194,0.34,-0.33,0.97,-4.78,-8.7,-16.0
0.196,0.4,-0.32,0.89,-4.06,-11.92,-9.5
0.197,0.37,-0.3,0.89,-2.08,-15.19,-0.81
0.216,0.36,-0.3,0.89,-2.55,-21.21,8.12
0.237,0.34,-0.3,0.89,-4.41,-16.95,10.2
0.257,0.4,-0.31,0.83,-3.95,-16.73,11.56
0.277,0.39,-0.34,0.85,-2.61,-9.89,12.61
0.297,0.35,-0.32,0.83,1.48,-5.8,17.95
0.317,0.37,-0.32,0.85,3.68,-5.27,20.66
0.337,0.45,-0.33,0.97,5.82,-14.46,24.26
0.357,0.44,-0.32,0.76,5.19,10.85,28.82
0.377,0.4,-0.3,0.86,8.73,2.06,42.23
0.396,0.35,-0.3,0.8,9.79,-13.88,51.04
0.42,0.35,-0.32,0.73,6.96,-11.62,51.82
0.437,0.38,-0.31,0.76,8.4,-7.82,45.36
0.457,0.33,-0.27,0.84,8.05,5.86,41.04
0.477,0.32,-0.28,0.76,1.11,10.44,43.94
0.497,0.36,-0.21,0.73,6.9,-2.23,47.53
0.517,0.37,-0.19,0.85,17.6,-18.11,51.53
0.537,0.31,-0.18,0.99,25.82,-13.66,59.01
0.557,0.32,-0.19,0.94,22.95,-7.74,64.92
0.58,0.3,-0.17,0.85,19.79,-1.79,68.92
0.598,0.22,-0.2,0.9,18.06,-3.95,76.47
0.617,0.12,-0.17,0.92,12.69,-11.51,82.06
0.636,0.1,-0.18,0.84,3.21,-15.54,80.35
0.657,0.12,-0.19,0.85,12.05,-26.17,78.34
0.677,0.1,-0.16,0.86,23.33,-27.5,80.27
0.697,0.06,-0.15,0.81,20.49,-18.37,80.85
0.717,-0.02,-0.18,0.96,26.02,-19.16,80.37
0.736,-0.05,-0.2,0.97,23.01,-28.55,75.16
0.759,0.0,-0.17,0.96,26.21,-27.53,60.2
0.777,0.01,-0.11,0.94,27.85,-24.98,52.96
0.797,-0.1,-0.13,0.95,31.65,-35.63,53.92
0.817,-0.05,-0.17,0.94,36.9,-41.45,53.22
0.839,-0.02,-0.15,0.86,45.74,-57.92,42.76
0.858,-0.04,-0.1,0.93,52.63,-60.99,37.27
0.878,0.04,-0.05,0.92,45.59,-69.98,27.04
0.897,0.13,-0.09,1.06,35.88,-79.3,19.24
0.917,0.21,-0.12,0.97,22.08,-89.59,13.37
0.937,0.22,-0.15,0.88,14.98,-93.42,9.73
0.96,0.19,-0.17,0.9,6.6,-76.67,10.85
0.979,0.15,-0.18,0.95,-1.28,-51.65,3.97
0.998,0.18,-0.11,1.11,4.98,-38.95,-8.6
1.02,0.2,-0.12,1.03,14.29,-32.38,-12.06
1.039,0.31,-0.18,0.97,17.65,-30.95,-21.65
1.057,0.24,-0.28,0.97,5.04,-12.29,-29.82
1.077,0.21,-0.21,0.95,-11.39,-4.87,-48.75
1.1,0.34,-0.1,0.95,-12.34,-23.54,-49.6
1.118,0.35,-0.11,0.9,-2.72,-22.46,-54.84
1.138,0.27,-0.25,0.83,0.15,-12.49,-50.56
1.157,0.28,-0.19,0.98,2.55,-35.74,-51.04
1.177,0.48,-0.08,0.98,28.38,-35.51,-57.04
1.199,0.41,-0.07,1.07,37.94,-14.85,-63.44
1.217,0.44,-0.06,1.1,31.5,-5.71,-68.96
1.237,0.52,0.05,1.27,22.15,-22.75,-71.56
1.257,0.58,0.06,1.12,14.11,-66.43,-56.11
1.277,0.46,-0.09,1.17,-0.31,-35.28,-49.94
1.299,0.4,-0.08,1.04,-3.65,-18.14,-49.11
1.319,0.49,0.02,1.01,6.63,-0.55,-67.11
1.339,0.66,0.06,1.08,8.17,16.79,-86.12
1.357,0.66,0.04,1.12,8.4,33.59,-86.2
1.376,0.66,0.06,1.24,11.98,43.31,-77.56
1.397,0.69,0.14,1.15,6.67,26.75,-68.9
1.417,0.63,0.09,1.02,-1.82,9.45,-58.85
1.437,0.61,0.02,0.98,-3.94,2.34,-51.62
1.456,0.52,0.1,0.97,-3.47,17.8,-54.96
1.477,0.48,0.16,1.12,0.87,37.18,-61.05
1.497,0.35,0.08,1.15,6.23,46.66,-57.3
1.517,0.32,0.06,1.05,6.44,56.26,-55.51
1.537,0.39,0.12,1.0,-13.6,35.89,-70.06
1.557,0.44,0.15,0.93,-28.44,18.85,-77.57
1.577,0.4,0.08,0.99,-25.53,18.99,-75.04
1.597,0.33,0.09,1.1,-17.25,23.18,-68.67
1.617,0.29,0.13,1.18,-15.22,14.31,-69.4
1.636,0.3,0.17,1.06,-29.28,2.0,-72.41
1.659,0.36,0.15,0.99,-43.08,-16.67,-77.53
1.678,0.45,0.08,0.98,-54.66,-41.27,-80.96
1.697,0.46,0.13,1.02,-50.43,-40.99,-76.56
1.72,0.5,0.2,1.07,-47.44,-30.12,-74.26
1.739,0.28,0.11,1.0,-49.97,-18.81,-73.91
1.758,0.32,0.07,1.08,-49.86,-25.6,-81.71
1.78,0.48,0.1,1.09,-63.31,-59.42,-105.53
1.799,0.62,0.11,0.92,-69.88,-76.52,-108.96
1.818,0.75,0.05,0.82,-54.53,-85.63,-96.95
1.837,0.87,0.1,0.82,-42.31,-100.05,-81.19
1.86,0.91,0.16,0.87,-35.91,-87.44,-65.07
1.878,0.86,0.16,0.88,-30.72,-43.01,-44.06
1.898,0.77,0.04,0.92,-17.36,-14.29,-25.83
1.92,0.68,-0.03,0.82,-10.27,2.18,-18.64
1.939,0.7,0.01,0.8,-15.02,-4.7,-22.29
1.957,0.83,0.12,0.92,-16.6,9.24,-33.28
1.977,0.71,0.09,1.01,-16.64,41.34,-25.92
1.997,0.57,0.07,1.04,-11.98,51.22,-16.4
2.017,0.6,0.06,1.05,-20.67,26.84,-15.42
2.036,0.67,0.07,1.0,-25.3,6.56,-17.53
2.06,0.63,-0.0,0.92,-24.85,13.47,-13.28
2.077,0.56,0.01,0.94,-21.45,25.05,-9.62
2.097,0.62,0.09,0.98,-23.79,27.25,-14.9
2.117,0.76,0.14,0.96,-31.8,19.16,-22.32
2.137,0.74,0.09,0.96,-28.35,12.67,-11.91
2.157,0.6,0.01,0.91,-31.82,12.76,8.17
2.177,0.53,-0.03,0.88,-40.18,6.95,13.69
2.197,0.49,-0.02,0.91,-48.14,2.15,9.71
2.217,0.43,0.02,0.88,-48.72,1.53,7.02
2.237,0.47,0.01,0.86,-47.89,-5.45,2.09
2.256,0.54,-0.05,0.83,-37.66,-16.46,0.44
2.277,0.52,-0.07,0.81,-32.56,-17.6,3.76
2.297,0.48,-0.03,0.8,-33.57,-19.91,8.66
2.317,0.51,-0.04,0.81,-36.87,-23.85,6.4
2.337,0.57,-0.08,0.76,-39.31,-34.73,7.16
2.357,0.56,-0.09,0.75,-36.34,-38.14,7.83
2.376,0.53,-0.14,0.71,-34.14,-41.42,10.66
2.399,0.46,-0.19,0.7,-28.9,-36.58,15.8
2.418,0.44,-0.21,0.68,-22.92,-28.56,13.95
2.437,0.48,-0.16,0.65,-24.02,-17.36,3.82
2.457,0.54,-0.13,0.66,-16.56,-10.7,-2.66
2.477,0.71,-0.11,0.7,-5.97,-13.94,-8.6
2.497,0.65,-0.09,0.8,4.35,-6.81,-1.79
2.517,0.62,-0.08,0.86,7.11,4.41,10.53
2.537,0.57,-0.12,0.76,2.14,14.46,14.38
2.557,0.53,-0.16,0.75,1.31,10.96,13.68
2.577,0.57,-0.18,0.71,2.0,9.21,10.58
2.597,0.6,-0.14,0.7,5.56,15.05,8.61
2.616,0.61,-0.15,0.78,13.47,23.18,10.64
2.64,0.62,-0.11,0.86,22.5,28.7,11.66
2.659,0.52,-0.09,0.92,21.39,38.47,17.05
2.677,0.58,-0.14,0.81,9.33,27.66,15.07
2.697,0.58,-0.16,0.8,-1.22,21.34,11.3
2.72,0.58,-0.17,0.8,-1.68,22.44,12.49
2.738,0.53,-0.15,0.88,-4.37,26.0,14.37
2.758,0.49,-0.15,0.89,-4.78,17.73,22.37
2.78,0.48,-0.1,0.9,-10.6,9.89,23.1
2.797,0.52,-0.14,0.82,-16.67,-2.15,24.18
2.817,0.56,-0.2,0.79,-16.11,-8.11,24.02
2.837,0.51,-0.19,0.82,-11.28,-0.38,28.14
2.857,0.45,-0.18,0.85,-9.74,13.4,31.11
2.877,0.41,-0.23,0.91,-10.49,16.4,32.95
2.897,0.43,-0.23,0.86,-9.88,6.27,31.76
2.916,0.41,-0.21,0.85,-11.1,5.05,29.56
2.94,0.45,-0.25,0.83,-12.11,2.72,26.53
2.958,0.46,-0.25,0.82,-12.96,4.14,26.43
2.977,0.4,-0.25,0.86,-9.59,8.72,27.11
2.997,0.37,-0.26,0.86,-0.76,10.35,31.24
3.018,0.39,-0.29,0.88,-5.1,9.88,28.49
3.037,0.35,-0.26,0.86,-2.56,15.47,28.61
3.06,0.32,-0.29,0.88,-0.63,16.49,28.26
3.077,0.31,-0.27,0.84,0.38,19.5,25.33
3.097,0.34,-0.26,0.85,2.96,16.02,22.9
3.118,0.34,-0.24,0.88,6.79,14.95,22.5
3.137,0.32,-0.23,0.89,6.02,13.47,23.77
3.157,0.33,-0.28,0.87,8.49,9.27,26.64
3.177,0.28,-0.29,0.9,8.15,9.33,25.04
3.197,0.26,-0.27,0.94,5.59,9.88,23.73
3.217,0.32,-0.24,0.89,1.37,5.22,20.35
3.237,0.33,-0.28,0.89,0.2,4.67,20.29
3.257,0.3,-0.28,0.92,1.82,4.63,21.44
3.277,0.29,-0.26,0.93,1.22,5.05,21.68
3.297,0.35,-0.23,0.91,4.52,3.48,18.55
3.317,0.33,-0.25,0.91,3.71,1.22,20.18
3.337,0.31,-0.29,0.95,3.4,-2.64,22.08
3.357,0.33,-0.27,0.92,2.18,1.79,19.94
3.377,0.41,-0.29,0.89,-0.79,1.98,17.04
3.397,0.41,-0.27,0.86,2.23,11.51,22.61
3.421,0.2,-0.28,0.88,4.73,16.95,38.41
3.437,0.13,-0.31,0.94,6.96,12.73,37.71
3.457,0.26,-0.3,0.88,4.9,1.8,24.49
3.477,0.28,-0.28,0.9,4.02,-1.79,18.56
3.499,0.33,-0.28,0.89,2.09,0.15,15.94
3.54,0.35,-0.28,0.85,1.08,1.37,15.69
3.556,0.28,-0.29,0.96,4.47,2.12,19.47
3.573,0.25,-0.27,0.95,4.67,6.06,21.76
3.6,0.29,-0.26,0.89,3.73,2.26,20.76
3.621,0.32,-0.27,0.9,3.07,-0.81,18.78
3.643,0.39,-0.29,0.91,3.42,-1.19,19.45
3.662,0.26,-0.27,0.93,7.1,13.71,24.75
3.679,0.27,-0.26,0.94,-1.02,23.51,22.7
3.7,0.19,-0.29,0.97,-5.47,27.94,21.65
3.711,0.16,-0.29,1.0,-9.08,32.81,19.92
3.729,0.14,-0.33,0.98,-9.24,28.29,18.29
3.747,0.04,-0.36,0.95,-6.76,20.5,28.2
3.768,0.04,-0.37,0.95,2.41,-3.15,31.56
3.793,0.12,-0.38,0.86,-4.09,-11.51,23.08
3.817,0.18,-0.35,0.78,1.13,-10.78,21.48
3.835,0.1,-0.34,0.84,7.66,-7.59,21.82
3.85,0.12,-0.32,0.92,13.45,4.76,13.08
3.867,0.15,-0.29,0.97,14.17,15.13,1.07
3.881,0.19,-0.29,0.96,10.47,27.16,-0.53
3.899,0.16,-0.3,0.98,14.06,16.31,7.27
3.926,0.18,-0.27,0.95,14.52,-2.64,12.5
3.947,0.18,-0.26,0.94,13.1,-13.11,14.46
3.964,0.13,-0.25,0.99,14.02,-12.96,12.43
3.982,0.18,-0.27,1.06,13.73,-2.6,8.78
3.998,0.17,-0.28,1.05,8.72,9.36,6.7
