timestamp,acce_x,acce_y,acce_z,gyro_x,gyro_y,gyro_z
0.002,0.17,0.33,0.86,-10.05,5.83,1.19
0.011,0.18,0.35,0.89,-6.69,7.74,0.44
0.02,0.15,0.37,0.88,-6.2,10.99,-0.18
0.026,0.1,0.38,0.91,-4.44,5.37,-2.14
0.03,0.14,0.39,0.92,-4.17,-2.84,-2.2
0.034,0.19,0.39,0.92,-7.18,-0.96,-0.69
0.037,0.19,0.37,0.89,-4.73,-2.4,1.15
0.039,0.17,0.37,0.89,-1.18,1.45,-0.09
0.041,0.14,0.39,0.92,-1.54,2.41,-2.05
0.043,0.17,0.38,0.91,-3.51,2.05,-2.03
0.045,0.19,0.38,0.9,-3.15,-0.5,0.29
0.047,0.2,0.37,0.88,-1.97,0.53,1.86
0.049,0.15,0.37,0.87,1.92,0.95,1.79
0.051,0.16,0.39,0.91,-0.12,-0.43,0.26
0.053,0.17,0.37,0.9,-0.23,-0.26,-0.87
0.055,0.18,0.4,0.93,1.48,-2.06,-1.59
0.057,0.2,0.4,0.94,-1.44,-0.58,-0.7
0.059,0.19,0.44,1.03,-3.98,0.05,-1.79
0.061,0.2,0.41,1.01,-9.04,-1.56,-1.59
0.063,0.21,0.38,0.97,-7.08,-4.5,0.81
0.065,0.16,0.38,0.97,-5.88,-4.21,0.66
0.067,0.15,0.4,1.03,-9.94,5.62,-5.53
0.069,0.13,0.41,1.06,-12.87,2.0,-6.85
0.071,0.08,0.46,1.13,-16.6,-4.29,-10.93
0.073,0.09,0.54,1.26,-25.71,-6.93,-16.56
0.076,0.17,0.62,1.42,-51.27,-3.63,-19.02
0.079,0.17,0.57,1.39,-66.24,-13.86,-17.94
0.081,0.18,0.53,1.35,-74.32,-19.31,-19.13
0.084,0.18,0.54,1.32,-87.01,-25.6,-18.53
0.088,0.28,0.55,1.38,-107.54,5.5,-28.72
0.09,0.3,0.51,1.38,-129.76,12.03,-25.28
0.092,0.34,0.51,1.42,-137.77,-2.78,-11.94
0.094,0.39,0.42,1.27,-149.21,0.63,-2.75
0.096,0.4,0.35,1.23,-154.75,-4.32,11.59
0.098,0.39,0.27,1.18,-158.6,32.66,7.13
0.1,0.36,0.21,1.1,-146.17,34.43,9.83
0.102,0.3,0.18,1.13,-144.63,17.48,24.75
0.104,0.26,0.14,1.06,-146.06,32.06,21.92
0.106,0.21,0.1,0.99,-150.52,14.99,34.38
0.108,0.17,0.03,0.93,-148.0,17.95,33.25
0.11,0.16,0.01,0.82,-149.68,6.5,40.76
0.112,0.13,-0.09,0.69,-142.26,3.54,38.67
0.114,0.17,-0.11,0.7,-144.24,-6.0,46.23
0.116,0.17,-0.16,0.67,-143.04,3.22,50.05
0.118,0.17,-0.18,0.68,-138.53,12.27,48.63
0.12,0.13,-0.17,0.77,-142.82,31.82,42.41
0.122,0.09,-0.25,0.65,-149.77,30.99,42.76
0.124,0.04,-0.35,0.56,-144.08,5.04,52.41
0.126,-0.05,-0.42,0.51,-131.01,-11.98,57.6
0.128,-0.04,-0.38,0.69,-146.89,-9.65,57.59
0.13,-0.14,-0.47,0.57,-156.37,-18.49,63.74
0.132,-0.2,-0.5,0.59,-162.05,-42.99,76.75
0.134,-0.23,-0.53,0.56,-159.88,-46.82,77.77
0.136,-0.33,-0.63,0.36,-161.4,-32.98,59.02
0.138,-0.47,-0.66,0.36,-156.92,-32.79,38.64
0.14,-0.39,-0.61,0.44,-160.11,-26.81,17.92
0.143,-0.3,-0.6,0.43,-167.21,-16.96,1.04
0.144,-0.2,-0.64,0.4,-173.18,-26.69,1.02
0.146,-0.55,-0.7,0.56,-157.85,29.53,-7.11
0.149,-0.15,-0.67,0.44,-99.62,-118.99,1.73
0.151,0.35,-0.7,0.05,-242.31,-8.03,10.98
0.152,0.22,-0.68,-0.07,-236.55,-33.56,52.37
0.154,0.21,-0.7,-0.15,-232.38,29.05,76.02
0.156,0.21,-0.75,-0.62,-240.99,56.78,90.84
0.158,0.15,-0.97,-1.03,-236.18,-1.79,126.53
0.16,-0.03,-1.15,-1.31,-184.78,72.29,111.89
0.162,-0.34,-1.12,-1.0,-123.5,38.7,102.63
0.164,-0.69,-0.9,-0.48,-96.72,-0.4,86.06
0.166,-0.58,-0.69,-0.13,-110.66,-39.42,71.65
0.168,-0.35,-0.65,-0.13,-139.5,-72.64,83.19
0.17,-0.28,-0.88,-0.55,-119.74,-26.14,62.82
0.172,-0.33,-0.85,-0.61,-96.58,13.28,50.76
0.174,-0.82,-0.85,-0.79,-93.48,-42.35,55.13
0.176,-0.82,-0.74,-0.71,-80.37,-45.15,20.02
0.178,-0.64,-0.8,-0.68,-69.45,-61.21,0.49
0.18,-0.34,-0.77,-0.53,-51.27,-44.9,-10.38
0.182,-0.25,-0.79,-0.53,-42.09,-32.72,-2.44
0.183,-0.25,-0.8,-0.56,-26.38,-29.65,7.63
0.185,-0.25,-0.72,-0.55,-25.63,-23.36,17.56
0.187,-0.42,-0.83,-0.7,-6.98,-8.92,14.23
0.189,-0.45,-0.78,-0.59,14.02,16.92,3.4
0.191,-0.51,-0.67,-0.4,12.21,18.24,3.3
0.193,-0.59,-0.66,-0.38,-5.1,-9.57,6.43
0.195,-0.53,-0.76,-0.53,-5.56,-19.54,2.0
0.196,-0.43,-0.78,-0.6,2.76,-5.05,-3.24
0.198,-0.4,-0.77,-0.51,9.89,8.37,-3.53
0.2,-0.39,-0.73,-0.44,2.64,8.93,-0.21
0.202,-0.43,-0.78,-0.44,2.7,2.85,3.16
0.204,-0.42,-0.78,-0.46,0.23,3.94,2.03
0.205,-0.39,-0.75,-0.48,1.27,6.63,1.86
0.208,-0.4,-0.77,-0.58,5.69,11.92,3.77
0.209,-0.48,-0.78,-0.56,16.34,17.34,-0.06
0.211,-0.52,-0.75,-0.47,13.53,4.29,-1.21
0.213,-0.5,-0.72,-0.4,9.5,-1.04,-5.95
0.215,-0.41,-0.68,-0.35,0.92,-1.04,-5.82
0.217,-0.35,-0.72,-0.43,-7.62,0.52,2.64
0.219,-0.42,-0.79,-0.54,-5.22,3.44,2.52
0.22,-0.46,-0.82,-0.62,4.08,0.24,-0.67
0.222,-0.48,-0.76,-0.51,10.09,3.83,-6.34
0.224,-0.52,-0.7,-0.38,6.08,2.98,-10.76
0.226,-0.51,-0.7,-0.34,-2.5,-14.12,-7.98
0.228,-0.4,-0.76,-0.51,-2.69,-8.27,-8.08
0.23,-0.33,-0.79,-0.56,6.53,-1.54,-7.15
0.232,-0.31,-0.81,-0.55,13.88,8.58,-6.26
0.233,-0.41,-0.81,-0.42,13.45,7.68,-3.88
0.235,-0.44,-0.81,-0.34,9.11,0.75,-5.59
0.237,-0.4,-0.78,-0.34,0.11,-1.13,-2.78
0.239,-0.37,-0.77,-0.43,-4.99,3.69,3.77
0.241,-0.43,-0.81,-0.53,-1.91,7.42,7.05
0.243,-0.5,-0.81,-0.54,4.29,10.56,3.39
0.245,-0.48,-0.78,-0.5,6.58,10.05,-2.43
0.246,-0.46,-0.76,-0.46,5.42,1.25,-3.45
0.248,-0.4,-0.77,-0.44,4.58,-1.86,-1.18
0.25,-0.4,-0.77,-0.44,2.52,-2.9,1.05
0.252,-0.42,-0.8,-0.49,6.87,1.11,-3.24
0.253,-0.37,-0.79,-0.47,10.41,4.89,-3.77
0.256,-0.35,-0.78,-0.46,11.83,9.6,-0.49
0.258,-0.38,-0.8,-0.47,12.18,8.6,2.79
0.259,-0.44,-0.81,-0.47,15.53,6.5,3.95
0.261,-0.49,-0.77,-0.45,15.62,3.28,0.75
0.263,-0.51,-0.75,-0.45,11.28,-3.56,-0.75
0.265,-0.46,-0.79,-0.49,12.99,-8.03,-0.21
0.267,-0.5,-0.83,-0.5,17.66,-5.5,-4.6
0.268,-0.46,-0.84,-0.53,25.82,-1.1,-10.05
0.27,-0.45,-0.8,-0.49,31.08,-0.34,-14.52
0.273,-0.49,-0.8,-0.49,32.72,-6.23,-11.31
0.274,-0.55,-0.86,-0.58,38.0,-10.49,-17.15
0.276,-0.51,-0.9,-0.61,51.8,-7.33,-28.41
0.278,-0.42,-0.85,-0.58,66.21,-5.18,-30.67
0.28,-0.39,-0.8,-0.49,71.21,-4.29,-27.07
0.282,-0.42,-0.85,-0.48,79.89,1.92,-28.53
0.284,-0.41,-0.85,-0.44,87.88,16.87,-31.86
0.286,-0.47,-0.81,-0.25,87.91,25.25,-38.55
0.288,-0.46,-0.82,-0.19,78.76,15.18,-39.11
0.29,-0.35,-0.88,-0.25,71.71,1.47,-36.11
0.292,-0.26,-0.94,-0.35,78.27,4.92,-36.38
0.293,-0.23,-0.99,-0.34,88.47,12.4,-34.12
0.295,-0.23,-0.99,-0.3,102.38,22.61,-32.32
0.297,-0.28,-0.88,-0.11,103.21,28.64,-35.79
0.299,-0.29,-0.85,-0.02,96.09,32.12,-38.95
0.301,-0.31,-0.87,-0.04,89.27,30.44,-38.18
0.303,-0.37,-0.91,-0.11,87.79,18.67,-37.07
0.305,-0.38,-0.94,-0.12,92.96,7.76,-40.12
0.307,-0.35,-0.93,-0.08,102.81,1.74,-46.29
0.308,-0.28,-0.86,0.06,105.8,-0.95,-50.49
0.31,-0.2,-0.85,0.12,102.24,9.83,-53.65
0.312,-0.15,-0.9,0.09,101.54,20.63,-51.5
0.321,-0.22,-0.88,0.17,100.81,5.34,-42.52
0.339,-0.18,-0.88,0.17,94.66,-13.62,-34.84
0.362,-0.07,-0.88,0.19,92.47,-26.29,-29.07
0.38,-0.04,-0.85,0.29,87.01,-23.77,-22.49
0.403,0.09,-0.86,0.28,84.89,-6.38,-12.64
0.422,-0.01,-0.9,0.22,90.61,3.28,-6.11
0.44,-0.13,-0.86,0.3,97.16,5.66,-8.78
0.463,-0.24,-0.81,0.4,95.34,-5.04,-17.54
0.481,-0.19,-0.79,0.43,91.25,-13.07,-25.11
0.5,-0.15,-0.81,0.4,86.31,-23.47,-27.65
0.522,-0.08,-0.85,0.34,90.05,-26.14,-25.77
0.541,-0.1,-0.86,0.34,103.97,-26.29,-30.32
0.56,-0.01,-0.76,0.54,100.99,-22.49,-36.27
0.582,0.02,-0.71,0.62,97.15,-18.78,-36.92
0.6,-0.04,-0.7,0.63,88.87,-20.93,-32.61
0.623,-0.04,-0.7,0.61,82.4,-40.73,-23.74
0.641,-0.0,-0.64,0.67,82.99,-32.49,-29.51
0.66,0.04,-0.6,0.73,81.95,-22.98,-34.09
0.683,0.04,-0.62,0.72,78.5,-9.48,-38.98
0.701,0.05,-0.63,0.7,77.79,-5.65,-37.19
0.721,0.07,-0.61,0.7,76.98,-13.21,-27.86
0.742,0.1,-0.63,0.66,79.25,-8.41,-22.56
0.761,0.09,-0.54,0.76,85.51,-7.44,-21.82
0.78,0.08,-0.48,0.83,82.2,4.0,-25.18
0.802,0.1,-0.45,0.89,74.7,9.91,-24.73
0.821,0.01,-0.49,0.83,74.06,4.58,-24.7
0.841,0.04,-0.49,0.84,71.53,-6.21,-24.26
0.862,0.05,-0.48,0.8,73.22,-3.89,-26.0
0.881,0.11,-0.45,0.81,73.88,6.78,-27.36
0.9,0.12,-0.4,0.88,70.52,5.3,-19.68
0.922,0.09,-0.4,0.86,70.27,-1.62,-10.6
0.941,0.08,-0.34,0.92,67.25,-31.76,1.42
0.96,0.0,-0.39,0.85,74.58,-34.98,-7.82
0.982,0.07,-0.33,0.91,78.2,-11.62,-26.84
1.001,0.1,-0.29,0.91,77.21,26.46,-44.31
1.02,0.13,-0.26,0.92,74.7,34.53,-41.77
1.042,0.07,-0.19,0.98,77.91,8.05,-22.81
1.06,0.03,-0.16,0.99,77.1,-29.4,-5.18
1.079,0.06,-0.08,1.12,68.37,-36.7,-8.61
1.102,0.14,-0.08,1.13,54.92,-4.87,-27.59
1.12,0.2,-0.15,1.01,49.13,23.18,-35.89
1.143,0.21,-0.15,0.96,57.8,11.11,-21.21
1.162,0.13,-0.08,0.98,60.35,-21.13,-1.4
1.18,0.14,0.01,1.09,59.27,-22.43,-5.86
1.203,0.2,0.06,1.19,50.02,10.96,-23.11
1.222,0.15,0.04,1.18,45.71,31.37,-34.9
1.241,0.17,0.0,1.15,43.24,12.35,-25.28
1.263,0.26,-0.01,1.12,36.2,-14.14,-5.36
1.282,0.23,-0.05,1.08,32.21,-8.56,-0.29
1.301,0.18,-0.07,1.03,30.95,8.56,-3.47
1.32,0.1,-0.05,0.99,37.5,2.14,-1.53
1.342,0.04,-0.01,1.05,40.11,-2.46,-2.34
1.361,0.05,0.05,1.1,33.98,-0.14,-7.83
1.38,0.09,0.05,1.09,25.71,-7.6,-7.33
1.402,0.12,0.04,1.07,19.15,-18.15,-1.63
1.421,0.14,0.02,1.01,23.19,-17.22,-0.75
1.44,0.16,0.03,1.0,24.9,-3.76,-4.23
1.462,0.15,0.03,0.99,26.4,9.63,-8.89
1.481,0.08,0.06,0.97,27.3,4.02,-5.66
1.499,0.11,0.1,1.03,27.63,-17.45,-0.96
1.522,0.15,0.1,1.02,23.42,-16.61,-3.79
1.541,0.2,0.1,0.97,24.24,-2.09,-8.55
1.559,0.17,0.09,0.95,26.9,2.55,-7.92
1.583,0.18,0.08,0.97,24.03,-4.14,-1.42
1.601,0.21,0.07,0.9,26.49,-5.04,3.47
1.619,0.17,0.12,0.95,31.92,-1.88,4.63
1.638,0.1,0.15,0.96,27.94,7.73,-2.85
1.662,0.1,0.16,0.94,33.77,-0.23,-5.39
1.68,0.16,0.2,1.0,33.44,-6.92,-2.85
1.7,0.16,0.21,1.03,27.74,-6.98,-1.4
1.722,0.17,0.21,1.03,25.88,-5.13,-0.61
1.741,0.13,0.22,1.04,25.1,-2.96,-3.48
1.76,0.15,0.2,0.99,26.78,-4.93,-4.23
1.783,0.15,0.22,1.0,27.71,-6.32,-2.73
1.802,0.15,0.24,1.01,26.63,-7.85,-0.4
1.82,0.12,0.28,1.06,25.05,-23.73,4.56
1.843,0.15,0.3,1.1,19.65,-30.89,3.27
1.861,0.22,0.26,1.05,14.84,-19.85,-2.11
1.88,0.24,0.25,1.0,12.87,-16.61,0.15
1.903,0.25,0.27,1.03,10.46,-12.18,2.08
1.922,0.25,0.26,0.98,6.76,-5.16,2.53
1.94,0.22,0.26,0.98,7.6,-10.15,2.9
1.963,0.21,0.24,0.97,7.22,-14.69,4.76
1.982,0.22,0.29,1.03,8.9,-12.21,2.98
2.001,0.23,0.28,1.0,5.15,-7.04,0.49
2.019,0.23,0.26,0.96,7.02,-4.85,0.61
2.04,0.23,0.26,0.96,8.92,-4.84,2.15
2.06,0.23,0.26,0.95,8.44,-0.99,3.48
2.08,0.2,0.27,0.94,13.04,0.63,2.99
2.1,0.16,0.3,0.99,11.83,6.03,-3.71
2.123,0.15,0.29,0.94,12.6,5.97,-9.22
2.142,0.18,0.31,0.96,13.77,10.08,-14.17
2.162,0.19,0.29,0.93,12.47,11.48,-14.7
2.18,0.22,0.3,0.93,11.63,9.13,-8.81
2.202,0.22,0.3,0.94,14.66,2.99,-3.24
2.221,0.21,0.33,0.96,13.42,0.92,-1.4
2.24,0.2,0.31,0.94,13.89,-1.62,-1.27
2.262,0.18,0.33,0.94,12.08,-4.56,-2.63
2.282,0.18,0.32,0.91,13.44,-6.44,-2.37
2.3,0.19,0.33,0.94,12.12,-7.18,-1.79
2.323,0.2,0.32,0.92,16.82,-13.88,-0.53
2.342,0.22,0.33,0.95,17.15,-5.15,-5.15
2.361,0.24,0.34,0.96,18.35,-1.98,-5.39
2.383,0.24,0.35,0.94,15.13,-2.08,-2.05
2.402,0.2,0.37,0.96,16.89,-7.1,-0.87
2.42,0.21,0.35,0.93,17.73,-5.39,-3.05
2.443,0.22,0.36,0.93,19.33,-4.98,-3.82
2.462,0.22,0.38,0.96,17.21,0.76,-4.84
2.481,0.22,0.4,0.99,12.52,8.5,-6.66
2.5,0.19,0.36,0.9,13.02,6.58,-6.21
2.522,0.2,0.35,0.87,18.17,6.18,-6.21
2.541,0.23,0.38,0.9,19.98,14.21,-7.1
2.56,0.2,0.39,0.88,19.3,12.82,-5.01
2.583,0.16,0.43,0.94,18.69,5.53,-2.81
2.601,0.15,0.46,0.98,7.18,-4.96,-2.52
2.62,0.2,0.45,0.94,7.13,-9.92,-1.94
2.643,0.19,0.49,1.01,1.01,-14.14,-1.69
2.662,0.23,0.44,0.93,-4.84,-14.95,-1.86
2.68,0.24,0.41,0.89,0.5,-12.58,-1.51
2.7,0.28,0.4,0.89,6.34,-7.79,0.12
2.72,0.27,0.43,0.91,6.61,1.1,0.96
2.74,0.23,0.43,0.94,5.76,5.44,0.55
2.762,0.21,0.45,0.97,3.48,4.12,0.6
2.781,0.21,0.43,0.94,3.94,0.49,2.26
2.8,0.18,0.44,0.95,4.32,-0.92,1.8
2.82,0.18,0.44,0.94,0.64,-0.44,-1.63
2.843,0.21,0.43,0.93,1.15,2.08,-2.06
2.86,0.21,0.44,0.93,0.61,0.61,-1.34
2.88,0.24,0.42,0.89,0.76,4.26,0.0
2.899,0.19,0.43,0.89,4.18,3.27,0.9
2.922,0.18,0.47,0.94,-1.24,6.79,-1.77
2.941,0.22,0.43,0.89,-0.79,3.76,-1.62
2.96,0.18,0.43,0.88,2.64,0.44,-0.08
2.98,0.2,0.43,0.88,1.88,-3.22,-0.66
3.003,0.21,0.44,0.88,3.24,1.31,-0.98
3.02,0.2,0.46,0.92,-2.08,1.24,-1.1
3.043,0.21,0.42,0.88,-0.61,-0.92,-0.56
3.062,0.2,0.46,0.9,-0.63,-2.08,0.47
3.081,0.21,0.44,0.88,-2.53,0.31,0.56
3.1,0.2,0.46,0.91,-2.46,2.24,-1.16
3.123,0.22,0.43,0.88,-1.47,0.09,-0.82
3.142,0.23,0.44,0.9,1.24,0.5,-0.43
3.16,0.24,0.43,0.9,-0.98,2.49,0.12
3.18,0.22,0.42,0.88,0.69,5.33,2.05
3.201,0.16,0.43,0.89,3.01,1.8,2.56
3.223,0.13,0.43,0.88,3.44,-2.64,0.26
3.24,0.15,0.44,0.89,4.56,1.39,-2.58
3.26,0.14,0.43,0.89,3.22,-3.13,-4.46
3.283,0.18,0.46,0.93,0.47,-4.06,-4.9
3.302,0.2,0.44,0.89,0.55,-7.73,-3.8
3.321,0.22,0.43,0.86,4.06,-5.42,-4.21
3.34,0.22,0.44,0.86,7.36,-3.97,-3.54
3.363,0.24,0.46,0.9,7.04,0.92,-3.47
3.38,0.2,0.46,0.91,4.67,2.47,-3.36
3.4,0.2,0.46,0.91,4.0,-1.63,-2.6
3.423,0.2,0.45,0.87,6.09,-5.08,-2.37
3.442,0.25,0.48,0.95,3.59,5.97,-5.89
3.46,0.26,0.51,0.97,-7.57,20.41,-8.31
3.483,0.24,0.46,0.88,-5.95,10.85,-2.75
3.503,0.22,0.46,0.85,2.18,1.56,2.18
3.521,0.18,0.48,0.92,0.52,5.48,0.09
3.54,0.19,0.47,0.91,-2.49,8.15,-1.62
3.563,0.19,0.48,0.96,-4.92,5.83,-1.62
3.581,0.18,0.46,0.92,-4.32,1.31,0.66
3.6,0.17,0.46,0.88,-1.86,-1.83,1.57
3.623,0.16,0.48,0.92,-2.56,-0.82,-0.08
3.642,0.19,0.49,0.97,-8.87,5.53,-2.06
3.661,0.19,0.46,0.94,-9.1,2.09,-0.72
3.68,0.19,0.47,0.94,-11.59,-0.18,0.35
3.702,0.17,0.43,0.86,-11.69,-1.8,1.01
3.721,0.15,0.42,0.84,-6.55,2.12,-1.11
3.741,0.17,0.43,0.87,-4.66,6.0,-4.47
3.763,0.21,0.46,0.92,-6.08,3.56,-3.42
3.782,0.22,0.44,0.89,-8.02,-0.34,-0.29
3.8,0.21,0.44,0.87,-5.94,-1.31,1.53
3.823,0.21,0.43,0.86,-4.27,2.17,2.0
3.84,0.17,0.43,0.86,-2.29,2.46,1.33
3.86,0.18,0.44,0.89,-3.82,0.87,1.02
3.88,0.17,0.45,0.9,-1.89,-1.25,0.44
3.903,0.18,0.46,0.94,-10.5,0.0,-0.21
3.922,0.21,0.41,0.87,-8.58,-1.48,2.64
3.941,0.17,0.43,0.9,-4.43,-2.09,2.53
3.96,0.18,0.43,0.9,-7.47,3.1,0.24
3.98,0.18,0.4,0.86,-5.62,3.97,1.22
