timestamp,acce_x,acce_y,acce_z,gyro_x,gyro_y,gyro_z
0.007,0.18,-0.05,0.99,-2.29,-15.24,-2.98
0.011,0.16,-0.04,0.98,1.71,-7.4,-1.5
0.016,0.14,-0.02,1.02,1.97,6.29,-6.66
0.02,0.13,-0.01,1.06,-0.63,7.47,-10.14
0.024,0.16,-0.03,1.07,-3.15,0.72,-6.06
0.029,0.18,-0.03,1.03,-3.77,-7.54,-3.88
0.033,0.19,-0.03,1.02,-4.63,1.82,-0.78
0.037,0.17,-0.04,0.99,-1.02,2.08,0.32
0.042,0.17,-0.02,1.0,1.05,5.4,1.13
0.046,0.16,-0.04,1.01,3.89,9.19,2.32
0.05,0.15,-0.01,1.11,0.5,22.29,0.81
0.055,0.15,0.0,1.13,-5.76,14.11,2.02
0.059,0.13,-0.02,1.11,-13.11,0.03,2.95
0.063,0.14,-0.05,1.0,-14.75,-2.61,1.54
0.067,0.15,-0.03,0.97,-12.09,6.53,-0.82
0.07,0.15,-0.01,1.02,-10.15,8.79,-0.31
0.072,0.16,-0.02,1.07,-8.06,7.28,-0.75
0.073,0.17,-0.01,1.15,-12.14,-5.57,4.69
0.075,0.17,0.01,1.18,-11.34,-13.37,11.31
0.077,0.13,0.0,1.16,-16.75,-15.25,13.74
0.079,0.06,-0.02,1.07,-18.5,-14.52,7.36
0.081,0.18,-0.05,1.04,-18.99,-12.82,5.13
0.083,0.28,-0.02,1.04,-21.02,-10.85,13.19
0.085,0.26,-0.01,1.17,-24.08,-4.41,24.26
0.087,0.16,-0.07,1.13,-18.79,-6.76,24.84
0.089,0.18,-0.03,1.15,-24.53,-14.99,19.36
0.09,0.22,0.02,1.3,-47.11,20.18,26.89
0.092,0.21,0.01,1.16,-63.59,4.46,31.45
0.094,0.3,-0.07,0.99,-60.96,-42.87,49.21
0.096,0.22,-0.15,0.91,-71.31,-27.83,57.94
0.098,0.22,-0.17,0.9,-62.84,-18.31,54.0
0.1,0.22,-0.18,1.03,-66.52,-28.21,59.25
0.102,0.2,-0.27,0.92,-71.44,-60.44,54.52
0.104,0.46,-0.2,0.83,-52.32,-81.69,68.34
0.105,0.44,-0.28,0.84,-38.93,-54.82,94.67
0.107,0.36,-0.22,0.79,-42.66,-35.57,92.02
0.109,0.41,-0.17,1.08,-88.81,19.25,90.12
0.111,0.23,-0.37,0.81,-98.38,24.05,73.63
0.113,0.24,-0.54,0.58,-78.76,-18.73,67.79
0.115,0.25,-0.6,0.62,-51.4,-20.43,68.41
0.117,0.23,-0.55,0.62,-22.41,-6.84,58.5
0.119,0.24,-0.61,0.66,1.71,-21.91,51.31
0.121,0.25,-0.58,0.61,9.51,-41.19,52.82
0.122,0.2,-0.58,0.61,16.41,-29.5,41.48
0.124,0.22,-0.49,0.68,29.63,-11.74,35.5
0.126,0.27,-0.43,0.75,30.92,3.91,40.02
0.128,0.21,-0.41,0.76,31.05,-1.98,43.4
0.13,0.23,-0.39,0.81,28.21,-10.34,48.93
0.132,0.26,-0.37,0.82,29.16,-29.53,58.53
0.134,0.28,-0.35,0.75,37.98,-42.96,64.03
0.136,0.3,-0.36,0.83,42.06,-41.54,63.24
0.137,0.26,-0.25,0.97,7.54,-12.31,59.57
0.139,0.22,-0.27,0.93,-6.92,-1.77,54.78
0.141,0.25,-0.34,0.86,-5.08,-13.11,58.27
0.143,0.29,-0.34,0.77,18.15,-30.6,64.7
0.145,0.29,-0.36,0.76,58.03,-50.5,72.0
0.147,0.3,-0.34,0.81,87.36,-50.43,78.53
0.149,0.17,-0.24,1.19,79.18,-23.44,72.09
0.151,0.11,-0.18,1.27,43.39,-5.54,60.93
0.152,0.19,-0.16,1.15,21.94,-60.47,70.02
0.154,0.34,-0.21,1.0,18.23,-103.16,90.6
0.156,0.4,-0.25,0.89,31.22,-97.82,110.49
0.158,0.42,-0.28,0.84,45.4,-57.24,123.16
0.16,0.36,-0.3,0.78,53.98,-8.66,119.59
0.162,0.33,-0.28,0.85,58.87,15.59,115.8
0.164,0.25,-0.21,1.13,46.0,16.84,114.76
0.166,0.14,-0.14,1.13,20.9,13.73,105.11
0.168,0.17,-0.15,1.01,4.56,-11.44,99.51
0.17,0.31,-0.15,0.95,6.29,-22.69,110.17
0.172,0.25,-0.17,1.07,10.93,-15.42,119.82
0.174,0.28,-0.15,1.12,3.5,12.29,120.03
0.176,0.26,-0.15,1.11,-0.9,30.93,120.4
0.178,0.16,-0.09,1.13,-8.92,18.53,131.69
0.18,-0.13,-0.09,1.28,-2.79,-44.96,129.1
0.182,-0.05,-0.16,1.25,13.51,-98.78,114.38
0.184,0.18,-0.21,1.03,21.59,-105.82,120.08
0.186,0.22,-0.24,0.89,25.22,-61.47,121.5
0.188,0.13,-0.2,0.8,12.55,-41.31,115.1
0.189,0.19,-0.13,0.79,10.9,-30.96,114.11
0.191,0.1,-0.13,0.78,15.31,-56.18,119.63
0.193,0.12,-0.14,0.68,34.11,-52.67,116.93
0.195,0.09,-0.14,0.68,68.5,-12.49,107.47
0.197,0.16,-0.03,0.69,83.74,-54.82,107.6
0.199,0.08,0.04,1.12,54.84,59.76,113.83
0.201,0.01,0.07,0.91,37.89,-16.5,133.57
0.203,0.0,0.04,0.77,70.6,8.4,121.57
0.205,-0.05,0.1,0.85,64.56,29.24,107.6
0.206,-0.03,0.17,0.85,71.42,22.99,103.22
0.208,0.1,0.15,1.06,78.69,-0.17,120.05
0.21,0.01,0.15,1.15,61.31,11.01,136.9
0.212,-0.07,0.16,1.0,54.37,27.18,139.4
0.214,-0.24,0.09,0.83,66.93,53.59,119.53
0.216,-0.28,0.1,1.03,73.25,64.14,105.02
0.218,-0.39,0.17,1.22,72.95,13.39,95.3
0.22,-0.23,0.27,1.19,68.18,-10.67,93.1
0.221,-0.16,0.28,1.2,59.8,7.92,89.05
0.223,-0.22,0.23,1.14,45.98,34.66,72.03
0.225,-0.25,0.25,1.1,30.53,39.33,52.49
0.227,-0.22,0.19,1.01,24.79,13.71,45.34
0.229,-0.17,0.23,1.07,32.47,-14.2,45.08
0.231,-0.17,0.16,1.12,22.43,-15.39,33.69
0.232,-0.14,0.14,1.0,13.59,9.54,20.52
0.234,-0.12,0.13,0.93,14.75,39.77,10.41
0.236,-0.13,0.14,1.0,17.48,47.08,7.89
0.238,-0.19,0.14,1.1,17.83,14.9,14.72
0.24,-0.11,0.15,1.06,22.81,-8.93,20.06
0.242,-0.06,0.15,0.96,20.37,2.92,20.37
0.244,-0.07,0.16,0.94,18.06,27.66,12.69
0.246,-0.09,0.18,1.05,18.43,41.47,7.97
0.247,-0.09,0.33,1.27,7.92,14.37,14.0
0.249,-0.12,0.36,1.25,-15.74,-26.46,34.75
0.251,-0.17,0.21,1.06,-10.18,-36.06,31.59
0.253,-0.17,0.19,1.12,-13.65,-5.62,4.03
0.255,-0.13,0.2,1.1,-20.43,15.6,-9.71
0.257,-0.14,0.15,1.03,-16.79,16.18,-17.01
0.258,-0.08,0.15,1.03,-7.88,-12.76,-10.76
0.261,-0.02,0.15,0.99,-9.48,-27.1,-1.92
0.262,0.01,0.07,0.85,-11.47,0.02,-2.58
0.264,-0.08,0.05,0.85,-7.71,21.77,-11.4
0.266,-0.12,0.07,0.96,-3.51,1.13,-14.12
0.268,-0.01,0.1,0.95,3.74,-26.43,-3.65
0.269,-0.02,0.13,0.94,3.73,-22.67,-0.35
0.271,-0.04,0.13,0.99,3.33,2.93,-4.78
0.273,-0.09,0.14,1.04,2.2,15.65,-9.44
0.275,-0.05,0.18,1.03,0.5,4.06,-6.66
0.276,-0.06,0.16,1.01,6.47,-18.75,1.04
0.278,-0.03,0.16,1.01,9.22,-21.27,1.05
0.28,0.02,0.18,1.01,7.6,-5.21,-0.09
0.282,-0.02,0.17,1.02,5.47,6.06,-1.68
0.284,-0.04,0.18,1.01,4.99,-4.7,-2.0
0.286,-0.05,0.2,1.0,5.77,-12.63,-1.5
0.288,-0.04,0.2,1.01,5.45,-7.16,0.4
0.29,-0.06,0.19,1.03,3.51,-8.05,1.18
0.292,-0.06,0.18,1.0,3.59,-15.98,1.73
0.294,-0.06,0.14,0.94,5.51,-15.73,2.2
0.296,-0.04,0.14,1.0,4.79,-15.76,3.08
0.297,-0.06,0.14,1.0,2.34,-14.41,0.66
0.299,-0.09,0.14,0.98,2.26,-12.05,-5.56
0.301,0.01,0.19,0.94,3.44,-10.85,-7.05
0.303,0.0,0.2,1.02,5.86,-7.91,-4.92
0.305,-0.03,0.21,1.05,4.14,-7.54,-3.48
0.306,0.0,0.21,1.03,7.08,-16.21,-1.66
0.308,0.02,0.21,1.03,3.91,-9.98,-3.27
0.31,-0.0,0.22,1.07,-7.3,-5.39,-6.81
0.312,0.04,0.21,1.04,-4.67,3.37,-7.45
0.314,-0.0,0.24,1.07,-9.98,6.55,-6.84
0.316,-0.02,0.21,1.06,-15.3,8.31,-9.22
0.318,-0.04,0.21,1.02,-14.75,4.05,-9.39
0.319,-0.02,0.24,1.0,-14.06,-5.25,-9.28
0.321,-0.06,0.17,1.04,-18.82,-5.94,-10.61
0.323,-0.14,0.18,1.05,-21.63,-1.18,-14.02
0.325,-0.16,0.17,1.03,-29.68,-8.96,-24.05
0.327,-0.1,0.14,1.03,-31.62,-10.72,-28.56
0.329,-0.07,0.11,1.0,-31.25,-22.38,-31.02
0.331,-0.05,0.1,0.94,-26.78,-9.92,-33.31
0.333,-0.02,0.14,0.97,-31.91,1.88,-34.17
0.334,-0.1,0.16,1.05,-45.57,6.95,-41.54
0.336,-0.14,0.19,1.19,-64.2,1.1,-49.71
0.338,-0.2,0.15,1.26,-73.69,-12.21,-52.98
0.34,-0.17,0.12,1.2,-82.0,-34.85,-59.5
0.342,-0.15,0.1,1.2,-93.04,-47.01,-64.46
0.354,-0.14,0.03,1.13,-92.55,-65.76,-66.35
0.376,-0.09,-0.01,1.08,-87.31,-75.39,-67.1
0.394,0.04,-0.03,1.0,-93.37,-70.27,-64.08
0.418,-0.07,-0.07,1.06,-93.76,-66.35,-74.95
0.436,0.04,-0.17,0.99,-102.02,-57.89,-81.4
0.455,0.03,-0.19,0.95,-91.91,-49.13,-90.17
0.477,0.13,-0.19,0.88,-79.85,-45.54,-89.07
0.495,0.13,-0.15,0.85,-61.91,-38.58,-88.92
0.518,0.14,-0.17,0.94,-55.01,-29.27,-91.82
0.536,0.18,-0.17,0.95,-46.15,4.31,-96.03
0.555,0.19,-0.17,0.94,-36.56,27.04,-91.8
0.578,0.1,-0.19,0.95,-24.08,-30.79,-100.15
0.596,0.21,-0.14,0.92,-15.18,-25.74,-108.63
0.615,0.32,-0.21,0.86,0.76,-14.53,-107.22
0.637,0.37,-0.17,0.83,6.49,-15.97,-99.4
0.656,0.33,-0.2,0.83,17.28,39.45,-90.87
0.674,0.29,-0.14,0.94,20.99,-9.34,-91.34
0.697,0.37,-0.02,0.91,18.61,3.69,-87.18
0.715,0.35,-0.11,0.84,14.7,44.53,-81.62
0.734,0.37,-0.14,0.81,-7.22,80.5,-75.4
0.757,0.32,-0.15,0.79,-10.29,114.08,-74.26
0.775,0.24,-0.13,0.85,-8.03,107.51,-71.56
0.795,0.18,-0.12,0.9,6.58,87.63,-75.48
0.817,0.1,-0.08,1.1,18.4,47.47,-80.67
0.835,0.23,-0.05,1.03,16.96,11.05,-82.46
0.854,0.36,-0.05,0.8,12.53,32.26,-71.27
0.877,0.19,-0.05,0.9,7.76,52.24,-69.92
0.895,0.11,-0.05,1.06,3.88,37.15,-74.02
0.913,0.11,-0.06,1.03,18.64,10.7,-82.5
0.937,0.22,0.02,1.0,13.86,19.97,-74.82
0.955,0.16,0.01,1.04,8.93,-10.34,-67.82
0.975,0.13,-0.02,0.94,7.69,-16.37,-63.74
0.997,0.1,-0.07,1.04,19.63,-10.34,-72.52
1.015,0.1,0.01,1.1,11.1,-39.15,-72.49
1.038,0.2,0.01,1.02,1.73,-39.63,-68.58
1.056,0.23,0.01,0.98,-11.27,-14.37,-65.6
1.074,0.24,0.0,1.01,-28.29,12.98,-63.59
1.098,0.22,-0.01,1.0,-31.25,6.12,-60.52
1.116,0.22,-0.03,1.01,-27.5,0.4,-58.09
1.135,0.21,-0.03,0.96,-4.55,-16.5,-57.71
1.158,0.23,-0.02,1.03,16.24,24.38,-70.03
1.176,0.32,0.03,0.95,7.59,20.75,-64.34
1.195,0.22,0.01,0.98,-7.95,76.23,-66.11
1.218,0.16,0.01,1.03,-18.95,62.09,-61.04
1.236,0.16,-0.01,0.98,-16.6,61.4,-56.99
1.255,0.14,-0.03,1.01,-16.55,48.18,-58.06
1.277,0.14,-0.02,0.95,8.98,36.18,-59.6
1.296,0.07,-0.0,1.06,12.4,-10.4,-61.27
1.315,0.15,-0.02,1.0,14.41,-22.73,-62.15
1.337,0.1,0.02,1.06,6.11,-29.82,-61.97
1.356,0.13,0.04,1.02,-1.27,-13.24,-61.51
1.375,0.18,0.05,1.05,-13.3,-12.18,-56.2
1.397,0.12,0.04,1.11,-18.4,-43.59,-52.81
1.415,0.17,0.01,1.07,-18.4,-53.18,-47.6
1.433,0.21,0.02,0.95,-14.78,-31.77,-47.3
1.457,0.24,-0.01,0.91,-9.18,-24.78,-47.89
1.475,0.2,-0.02,0.97,-7.3,-6.81,-49.79
1.498,0.22,-0.01,0.95,-5.5,10.02,-49.44
1.517,0.2,0.0,0.97,1.62,11.02,-49.53
1.535,0.14,-0.0,1.05,3.01,14.81,-49.37
1.554,0.16,-0.0,1.07,0.2,26.18,-50.63
1.576,0.19,0.02,1.08,-18.18,38.11,-51.42
1.596,0.16,0.0,1.09,-27.11,32.67,-47.4
1.618,0.11,-0.01,1.08,-37.94,19.24,-45.6
1.637,0.09,-0.1,1.02,-34.17,7.77,-45.34
1.655,0.1,-0.02,1.01,-30.06,-3.05,-46.27
1.677,0.13,-0.05,1.01,-22.75,-1.92,-46.73
1.696,0.11,-0.04,1.0,-17.36,-0.35,-49.79
1.714,0.16,-0.04,0.99,-17.34,7.11,-50.15
1.737,0.16,-0.06,0.96,-18.17,19.07,-52.03
1.756,0.16,-0.05,0.95,-20.32,20.64,-49.71
1.776,0.15,-0.06,0.95,-9.63,14.35,-46.7
1.797,0.13,-0.06,0.98,-2.79,-4.14,-44.58
1.816,0.12,-0.05,0.99,-2.03,-5.89,-46.79
1.835,0.14,-0.04,1.02,3.01,-6.24,-48.05
1.857,0.15,-0.02,1.04,-1.76,-11.8,-46.38
1.876,0.16,-0.03,1.05,-4.27,-9.91,-43.22
1.895,0.15,-0.06,1.01,-10.03,-12.75,-42.5
1.917,0.13,-0.07,0.98,-9.31,-12.64,-44.11
1.935,0.13,-0.05,0.99,-10.02,-10.93,-45.57
1.958,0.15,-0.07,1.05,-10.12,-15.16,-47.57
1.977,0.18,-0.07,0.96,-9.01,-10.95,-45.53
1.995,0.2,-0.07,0.96,-4.56,-7.79,-44.58
2.017,0.15,-0.05,0.98,-0.29,-12.17,-44.17
2.036,0.18,-0.05,1.02,-0.03,-12.08,-46.21
2.056,0.2,-0.04,0.99,-1.88,-10.08,-48.02
2.077,0.22,-0.05,0.97,-3.15,-0.58,-48.75
2.096,0.26,-0.03,0.94,-1.15,8.03,-46.46
2.115,0.2,0.0,1.02,-1.85,5.04,-43.16
2.137,0.25,-0.04,0.99,-0.7,-6.26,-39.42
2.156,0.22,-0.05,0.99,1.47,-4.27,-38.58
2.176,0.23,-0.03,1.01,-1.01,3.39,-39.13
2.198,0.21,-0.02,1.03,-5.71,7.08,-38.67
2.216,0.2,-0.03,1.01,-11.04,15.31,-40.61
2.235,0.19,-0.01,0.98,-14.99,22.24,-42.4
2.257,0.2,-0.0,1.03,-22.03,30.64,-40.46
2.276,0.16,-0.04,0.94,-9.15,1.73,-36.38
2.295,0.2,-0.08,0.96,4.47,-12.29,-34.72
2.317,0.25,-0.07,0.98,8.49,-16.61,-31.15
2.335,0.22,-0.04,1.02,10.89,-11.3,-30.56
2.355,0.19,-0.02,1.04,2.72,-1.66,-32.09
2.377,0.21,-0.03,1.01,-3.98,12.41,-34.69
2.396,0.15,-0.04,1.02,-8.18,13.73,-33.77
2.415,0.12,-0.04,1.05,-9.92,3.97,-34.5
2.436,0.15,-0.03,1.01,-6.37,-11.34,-33.8
2.456,0.19,0.0,0.91,0.61,-6.81,-33.63
2.475,0.18,0.01,0.95,5.22,1.85,-30.61
2.497,0.19,-0.04,0.92,0.29,112.84,-42.58
2.516,0.03,-0.03,1.16,-3.54,7.62,-36.92
2.535,0.09,-0.07,0.97,-6.27,2.27,-37.34
2.557,0.16,-0.04,1.05,-21.69,-1.16,-40.47
2.576,0.11,-0.01,1.0,-6.11,-8.2,-37.11
2.595,0.17,-0.04,0.93,8.89,-38.72,-30.75
2.618,0.17,-0.03,0.98,17.05,1.44,-35.76
2.635,0.15,-0.0,1.02,4.2,-11.57,-37.42
2.655,0.15,0.02,1.02,-1.57,-33.3,-35.18
2.677,0.23,0.01,0.99,-1.47,-25.18,-34.15
2.695,0.24,0.01,1.0,3.42,-17.83,-32.49
2.714,0.26,0.02,0.98,4.55,-14.98,-30.6
2.736,0.26,0.03,1.01,2.21,-14.73,-28.35
2.755,0.26,0.03,1.04,-5.53,-23.57,-25.51
2.778,0.26,0.01,1.01,-7.47,-39.33,-21.3
2.797,0.28,0.02,0.98,-9.8,-39.89,-17.76
2.815,0.29,-0.0,0.96,-5.11,-19.13,-18.66
2.838,0.25,-0.0,0.96,-5.54,-28.9,-17.95
2.857,0.26,-0.02,0.99,-6.64,-32.43,-21.02
2.875,0.31,0.01,0.98,-9.83,-26.76,-21.63
2.897,0.3,-0.01,0.98,-8.79,-20.35,-20.69
2.916,0.29,-0.02,0.98,-6.08,-21.82,-21.59
2.935,0.32,-0.0,0.97,-3.73,-16.5,-21.1
2.958,0.31,-0.01,0.96,-3.07,-15.65,-21.89
2.976,0.33,0.0,0.92,-3.24,-6.81,-24.02
2.995,0.35,-0.01,0.92,-2.81,5.36,-23.27
3.017,0.32,-0.01,0.95,1.95,21.11,-24.38
3.036,0.32,0.01,0.99,4.23,15.98,-22.26
3.056,0.32,0.01,0.98,5.59,6.11,-22.93
3.078,0.29,0.01,1.05,4.26,8.03,-23.04
3.096,0.29,0.01,1.01,-0.41,14.76,-25.48
3.115,0.32,0.02,0.97,-2.61,10.58,-23.98
3.138,0.37,0.02,0.92,0.24,8.02,-21.73
3.159,0.38,0.04,0.95,4.66,11.27,-18.47
3.174,0.36,0.06,1.01,4.87,14.18,-16.27
3.193,0.35,0.05,1.03,-0.7,7.74,-13.33
3.216,0.32,0.03,1.02,-7.47,1.92,-10.55
3.235,0.33,0.03,0.98,-7.25,6.12,-10.26
3.253,0.3,0.03,0.98,-3.88,10.44,-11.18
3.277,0.29,0.02,0.99,-2.64,4.89,-8.11
3.295,0.28,0.01,1.03,-1.5,6.53,-8.95
3.314,0.22,0.04,1.07,-8.17,7.85,-13.18
3.337,0.21,0.03,1.08,-14.9,8.64,-19.73
3.357,0.27,0.02,1.0,-15.45,0.15,-18.9
3.374,0.3,-0.0,0.94,-13.92,-4.75,-15.27
3.397,0.31,0.01,0.93,-9.48,-2.58,-10.47
3.416,0.3,0.0,0.94,-7.5,-7.3,-4.79
3.434,0.24,-0.0,1.0,-3.54,-20.76,-3.94
3.457,0.27,0.01,0.98,-5.1,-20.49,-4.11
3.476,0.25,0.0,1.05,-9.65,2.23,-12.66
3.494,0.28,-0.0,1.0,-12.82,-2.89,-10.73
3.517,0.23,-0.01,0.96,-10.24,-14.81,-10.63
3.537,0.26,0.0,0.93,-7.01,-20.76,-10.72
3.554,0.32,-0.01,0.87,0.6,-20.32,-7.79
3.577,0.37,-0.01,0.85,7.6,-11.89,-3.11
3.595,0.35,-0.01,0.95,13.63,-13.95,-1.25
3.614,0.34,0.03,0.98,17.04,-16.31,0.35
3.634,0.35,0.03,0.98,6.66,4.52,-3.37
3.658,0.32,0.02,0.98,4.5,18.89,-4.67
3.677,0.32,0.02,0.98,2.44,23.3,-4.66
3.695,0.33,0.02,0.97,3.89,16.52,-2.82
3.714,0.33,0.03,1.03,2.69,18.52,-0.02
3.737,0.31,0.04,1.0,8.37,11.31,-1.85
3.756,0.29,0.05,1.05,5.89,17.71,-3.6
3.775,0.3,0.04,1.03,0.41,12.75,-1.13
3.794,0.29,0.02,0.96,-2.43,2.27,1.6
3.813,0.27,0.03,0.96,0.06,1.94,2.15
3.834,0.24,0.02,1.0,1.18,10.05,1.6
3.853,0.22,0.03,1.07,0.46,0.02,1.45
3.877,0.24,0.02,1.04,-3.66,-18.26,1.54
3.895,0.25,0.01,0.97,-7.57,-22.44,3.54
3.914,0.27,0.02,0.98,-7.13,-15.59,2.58
3.934,0.22,0.03,0.99,-8.43,3.22,0.69
3.958,0.25,0.01,0.98,-7.69,-3.08,3.59
3.98,0.23,0.01,0.97,-5.71,-12.05,0.72
3.996,0.26,0.01,1.0,-8.05,-3.74,0.85
