timestamp,acce_x,acce_y,acce_z,gyro_x,gyro_y,gyro_z
0.001,0.28,0.84,0.49,-3.39,-5.89,0.32
0.002,0.29,0.85,0.49,-3.07,-4.34,0.76
0.004,0.29,0.86,0.48,-3.98,-0.24,0.29
0.005,0.28,0.86,0.49,-3.91,-1.19,-0.55
0.007,0.29,0.86,0.48,-4.72,-1.92,-0.43
0.008,0.29,0.84,0.49,-5.42,-0.73,-1.6
0.009,0.28,0.85,0.5,-4.0,-1.04,-1.21
0.01,0.28,0.86,0.5,-3.88,0.56,-1.11
0.012,0.28,0.86,0.49,-3.48,-0.69,-2.09
0.013,0.27,0.85,0.5,-4.12,-0.75,-2.15
0.014,0.27,0.84,0.49,-4.09,0.89,-2.2
0.015,0.27,0.85,0.49,-3.6,2.87,-0.85
0.016,0.25,0.85,0.47,-4.85,4.49,-0.26
0.017,0.26,0.85,0.49,-5.74,1.77,-1.42
0.019,0.26,0.86,0.49,-5.4,1.76,-0.84
0.02,0.26,0.86,0.48,-7.62,4.66,-0.96
0.021,0.26,0.86,0.47,-7.92,2.89,-0.32
0.022,0.27,0.88,0.48,-10.56,3.31,-0.95
0.023,0.26,0.86,0.49,-12.29,0.17,-2.87
0.024,0.26,0.85,0.49,-12.47,-1.28,-2.92
0.025,0.27,0.82,0.5,-13.02,0.32,-3.28
0.026,0.26,0.81,0.48,-11.13,2.85,-1.79
0.027,0.25,0.83,0.47,-13.34,7.11,-1.08
0.028,0.24,0.83,0.51,-17.02,-1.33,-4.78
0.029,0.25,0.8,0.52,-13.89,-7.97,-5.51
0.03,0.28,0.81,0.52,-11.65,-0.78,-3.37
0.031,0.27,0.84,0.5,-13.74,3.57,-4.79
0.032,0.26,0.84,0.49,-16.52,0.09,-4.55
0.033,0.25,0.82,0.47,-19.89,6.58,-2.52
0.035,0.22,0.85,0.43,-24.21,16.55,2.21
0.035,0.18,0.86,0.38,-30.89,19.19,4.81
0.036,0.15,0.84,0.37,-40.08,12.06,4.18
0.037,0.16,0.8,0.38,-47.76,3.39,3.25
0.038,0.18,0.77,0.35,-54.14,5.01,5.68
0.039,0.18,0.74,0.31,-63.83,12.79,9.47
0.04,0.21,0.68,0.35,-74.46,8.87,6.44
0.041,0.23,0.66,0.35,-78.98,3.42,6.24
0.042,0.28,0.65,0.3,-88.23,17.88,8.58
0.043,0.3,0.62,0.26,-102.12,41.3,13.15
0.044,0.23,0.58,0.3,-116.14,44.11,12.12
0.044,0.21,0.46,0.41,-128.7,24.79,2.24
0.045,0.21,0.37,0.53,-126.18,10.52,-0.06
0.046,0.21,0.36,0.5,-119.33,25.74,-0.24
0.047,0.14,0.38,0.52,-123.34,42.34,-1.33
0.048,0.1,0.35,0.56,-129.69,33.69,-5.33
0.049,0.09,0.25,0.68,-138.56,1.36,-20.12
0.05,0.14,0.15,0.84,-134.34,-28.5,-31.15
0.05,0.16,0.19,0.89,-117.27,-22.17,-23.8
0.051,0.19,0.2,0.85,-118.27,14.95,-8.17
0.052,0.13,0.15,0.87,-124.89,48.43,6.89
0.053,0.09,0.1,0.94,-132.89,58.4,11.34
0.054,0.07,0.05,1.01,-135.56,57.47,14.43
0.055,0.04,-0.02,1.07,-134.31,65.22,16.11
0.056,-0.03,-0.13,1.21,-125.6,52.76,14.53
0.056,-0.01,-0.25,1.38,-109.47,27.34,4.2
0.057,0.08,-0.27,1.41,-86.69,12.93,-5.66
0.058,0.09,-0.23,1.33,-71.63,36.55,-4.79
0.059,-0.08,-0.18,1.25,-65.48,68.52,9.74
0.06,-0.15,-0.18,1.24,-71.66,73.44,16.5
0.061,-0.14,-0.26,1.33,-64.79,45.01,10.64
0.061,-0.08,-0.27,1.32,-52.9,27.83,1.82
0.062,-0.12,-0.24,1.27,-45.44,29.16,0.95
0.063,-0.15,-0.25,1.25,-43.88,24.46,5.44
0.064,-0.12,-0.27,1.26,-39.34,11.27,6.03
0.065,-0.1,-0.3,1.26,-33.24,-1.6,3.56
0.065,-0.08,-0.33,1.33,-19.54,-23.24,8.32
0.066,-0.05,-0.3,1.18,-19.94,-6.37,4.34
0.067,-0.06,-0.25,1.09,-20.38,1.79,9.47
0.068,-0.09,-0.24,1.06,-25.71,8.99,11.34
0.068,-0.08,-0.22,1.03,-31.71,-0.02,6.93
0.069,-0.04,-0.29,1.07,-31.16,-13.45,3.11
0.07,0.02,-0.3,1.1,-26.75,-14.12,2.29
0.071,0.03,-0.28,1.14,-19.98,-11.97,5.88
0.071,0.04,-0.28,1.09,-19.13,5.05,5.45
0.072,0.01,-0.26,1.04,-19.68,8.29,2.43
0.073,-0.04,-0.29,1.04,-16.95,1.08,1.47
0.074,-0.03,-0.32,1.07,-15.51,-2.72,0.03
0.074,-0.02,-0.33,1.08,-9.68,-1.85,2.35
0.075,-0.02,-0.31,1.05,-3.95,5.36,3.89
0.076,-0.04,-0.28,1.01,-4.64,12.26,2.73
0.077,-0.08,-0.29,1.01,-4.06,8.24,2.61
0.077,-0.07,-0.29,1.02,-1.1,2.15,2.02
0.078,-0.06,-0.3,1.0,1.39,1.34,1.48
0.079,-0.07,-0.3,1.0,1.16,4.0,2.63
0.08,-0.02,-0.28,0.96,4.55,2.95,0.58
0.08,-0.03,-0.28,0.96,5.94,2.53,-0.69
0.081,-0.05,-0.3,0.96,4.34,4.87,-1.15
0.099,-0.05,-0.3,0.96,3.59,4.43,-0.43
0.123,-0.05,-0.28,0.96,4.44,4.05,0.5
0.141,-0.05,-0.29,0.96,2.87,2.15,-0.96
0.159,-0.07,-0.27,0.96,4.05,-1.05,-1.77
0.183,-0.07,-0.28,0.96,2.21,-1.91,-0.69
0.201,-0.06,-0.27,0.96,2.06,-2.76,-0.87
0.22,-0.05,-0.28,0.97,0.69,-5.83,-1.31
0.243,-0.06,-0.28,0.96,0.12,-8.55,-2.34
0.261,-0.07,-0.27,0.98,1.05,-6.92,-2.34
0.28,-0.08,-0.28,0.96,0.82,-3.02,-1.4
0.303,-0.11,-0.27,0.95,2.21,-4.89,-1.89
0.321,-0.1,-0.26,0.96,3.45,-6.26,-0.06
0.34,-0.09,-0.27,0.96,2.72,-3.94,2.75
0.363,-0.08,-0.26,0.97,5.1,-4.5,3.39
0.382,-0.06,-0.27,0.97,6.27,-7.57,1.71
0.4,-0.05,-0.26,0.96,7.42,-6.81,3.01
0.418,-0.06,-0.26,0.96,6.09,-1.08,4.52
0.442,-0.04,-0.26,0.96,3.11,0.12,5.85
0.461,-0.05,-0.25,0.95,3.37,-2.49,6.38
0.479,-0.04,-0.25,0.93,2.35,-4.66,7.04
0.503,-0.04,-0.26,0.94,-2.56,0.72,6.4
0.521,-0.03,-0.25,0.96,-4.02,0.85,6.17
0.539,-0.03,-0.25,0.97,-4.0,-1.13,6.43
0.563,-0.01,-0.26,0.96,-4.81,-2.06,6.46
0.581,-0.0,-0.27,1.0,-6.18,-2.55,4.85
0.599,-0.02,-0.27,1.01,-4.95,-4.18,2.18
0.623,-0.02,-0.29,1.03,-3.91,-5.88,-0.2
0.641,-0.01,-0.31,1.03,-2.92,-8.38,-0.96
0.659,-0.02,-0.3,1.01,0.53,-6.12,-0.81
0.683,-0.03,-0.3,1.0,2.55,-2.46,-0.02
0.701,-0.03,-0.29,0.99,4.99,-1.11,0.46
0.719,-0.03,-0.27,0.98,6.96,-2.53,1.3
0.743,-0.02,-0.27,0.98,6.85,-2.98,-0.52
0.761,-0.02,-0.27,0.97,7.4,-5.71,-1.11
0.78,-0.01,-0.26,0.96,8.09,-4.95,-0.89
0.803,0.0,-0.26,0.96,6.75,-1.3,-0.37
0.821,-0.01,-0.24,0.95,6.56,-1.18,0.05
0.84,-0.02,-0.24,0.94,5.47,-2.05,0.31
0.863,-0.01,-0.25,0.96,2.35,-1.94,0.43
0.882,0.01,-0.26,0.98,-0.29,-2.09,0.37
0.9,0.01,-0.26,0.96,0.7,-2.08,-0.24
0.919,0.0,-0.26,0.98,0.92,-0.43,-0.43
0.942,-0.01,-0.26,0.98,0.9,0.41,-0.66
0.96,-0.03,-0.27,1.0,2.06,3.39,-1.91
0.979,-0.02,-0.27,1.0,0.26,0.02,-1.59
1.002,-0.02,-0.26,0.98,1.98,0.72,-1.04
1.021,-0.03,-0.27,0.98,2.15,1.21,-0.9
1.039,-0.02,-0.26,0.97,2.56,0.44,-1.73
1.063,-0.02,-0.25,0.96,3.53,-1.94,-1.15
1.081,-0.02,-0.25,0.98,1.39,-1.19,-1.34
1.099,-0.01,-0.26,0.96,1.22,-2.2,-1.56
1.123,-0.01,-0.26,0.97,1.18,-2.7,-1.18
1.141,-0.01,-0.26,0.96,1.11,-1.79,-1.44
1.159,-0.01,-0.26,0.97,1.28,-1.92,-1.44
1.183,-0.01,-0.26,0.97,1.16,-3.92,-0.81
1.201,-0.01,-0.25,0.96,1.65,-3.28,-0.89
1.22,0.0,-0.25,0.98,1.36,-2.79,-1.27
1.243,-0.0,-0.25,0.97,1.28,-3.04,-1.19
1.261,-0.02,-0.25,0.97,2.41,-1.95,-1.89
1.28,-0.06,-0.25,0.99,1.62,-0.82,-1.16
1.303,0.05,-0.25,0.91,0.34,-6.44,1.71
1.322,0.02,-0.24,0.94,1.01,-0.18,0.69
1.34,0.0,-0.25,0.97,0.29,0.75,-1.68
1.359,0.0,-0.24,0.97,1.56,-1.94,0.05
1.382,0.0,-0.26,0.98,1.28,-2.7,-0.47
1.401,0.0,-0.25,0.97,0.21,-0.43,0.27
1.42,0.0,-0.25,0.96,1.22,0.69,0.46
1.444,-0.01,-0.26,0.97,0.43,-1.08,0.23
1.462,-0.0,-0.26,0.99,-0.87,-2.82,-0.53
1.48,0.0,-0.27,0.99,-0.82,-3.08,0.0
1.504,-0.0,-0.28,1.0,-0.5,-2.15,0.63
1.522,0.01,-0.28,1.02,-0.47,-2.46,0.18
1.541,0.02,-0.28,1.03,1.31,-3.07,0.61
1.559,0.01,-0.28,1.01,3.3,-1.76,0.18
1.582,0.01,-0.28,1.0,3.88,-0.99,0.2
1.601,0.01,-0.28,1.02,3.8,-1.01,0.82
1.62,0.02,-0.29,1.04,5.15,-1.56,-0.24
1.643,0.01,-0.29,1.03,8.12,-2.7,-1.16
1.661,0.0,-0.27,1.03,10.35,-2.43,-1.71
1.679,0.0,-0.27,1.03,10.81,-3.63,-2.44
1.703,0.01,-0.26,1.03,12.35,-5.4,-1.6
1.721,0.01,-0.25,1.03,12.73,-5.44,-1.28
1.739,0.01,-0.26,1.05,13.25,-6.76,-1.62
1.763,0.02,-0.26,1.04,14.14,-9.6,-1.31
1.782,0.03,-0.24,1.03,16.14,-9.6,-1.56
1.8,0.03,-0.23,1.02,17.36,-9.08,-1.18
1.823,0.01,-0.22,1.03,16.9,-8.84,-1.19
1.842,0.03,-0.24,1.05,16.9,-11.82,-0.17
1.86,0.04,-0.22,1.02,18.09,-15.76,-0.99
1.883,0.06,-0.22,1.04,19.88,-18.18,-2.0
1.901,0.05,-0.22,1.04,20.6,-17.21,-2.34
1.919,0.05,-0.21,1.05,21.48,-15.01,-1.47
1.943,0.05,-0.21,1.06,22.02,-15.66,-2.44
1.961,0.06,-0.21,1.05,23.53,-19.79,-2.32
1.979,0.07,-0.21,1.07,24.49,-21.16,-1.45
2.003,0.08,-0.2,1.07,25.95,-21.68,-1.92
2.021,0.08,-0.2,1.07,29.16,-23.69,-1.89
2.039,0.09,-0.18,1.06,31.5,-20.98,-0.03
2.063,0.12,-0.16,1.05,33.4,-17.37,2.52
2.081,0.12,-0.16,1.05,34.34,-14.21,3.59
2.099,0.14,-0.12,1.03,34.64,-13.89,1.5
2.123,0.12,-0.12,1.07,36.66,-17.01,-2.37
2.141,0.16,-0.11,1.06,38.85,-22.14,-5.69
2.159,0.13,-0.1,1.07,40.49,-19.69,-4.11
2.182,0.14,-0.08,1.06,39.85,-13.1,-3.01
2.201,0.13,-0.06,1.05,41.77,-11.24,-5.02
2.219,0.12,-0.04,1.02,42.05,-12.27,-9.31
2.242,0.09,-0.03,1.01,42.17,-10.41,-8.24
2.261,0.09,-0.02,1.02,40.02,-10.15,-7.19
2.279,0.12,-0.01,1.0,40.34,-15.31,-4.84
2.302,0.08,0.01,1.11,40.0,-16.32,-5.57
2.32,0.16,0.02,1.04,38.85,-26.05,-5.37
2.339,0.19,0.04,1.02,41.34,-29.11,-3.77
2.362,0.17,0.06,1.07,39.04,-22.92,-3.16
2.381,0.18,0.05,1.04,37.37,-17.25,-6.12
2.399,0.19,0.08,1.0,46.72,-28.17,-2.92
2.422,0.19,0.1,0.99,47.1,-26.79,-3.6
2.44,0.18,0.12,0.98,46.72,-25.62,-3.54
2.459,0.21,0.12,0.98,45.39,-29.48,-1.15
2.482,0.2,0.11,1.02,41.31,-28.15,-1.24
2.501,0.22,0.12,1.01,44.4,-29.13,-3.3
2.519,0.27,0.14,1.0,49.3,-33.3,-0.89
2.542,0.29,0.15,1.0,49.44,-31.45,-2.31
2.561,0.3,0.16,0.98,52.29,-27.4,-1.19
2.579,0.31,0.19,0.98,55.39,-23.16,0.93
2.603,0.3,0.21,0.98,56.47,-20.37,-0.84
2.621,0.29,0.22,0.97,59.1,-22.41,-3.57
2.639,0.32,0.25,0.96,62.4,-25.1,-5.02
2.663,0.33,0.25,0.95,64.9,-25.42,-4.32
2.681,0.34,0.28,0.92,66.64,-21.39,-3.92
2.699,0.31,0.31,0.88,69.36,-17.13,-3.42
2.723,0.31,0.32,0.86,69.54,-13.53,-3.37
2.741,0.3,0.34,0.86,69.44,-12.03,-3.36
2.759,0.32,0.36,0.84,68.63,-13.42,-2.41
2.783,0.35,0.39,0.84,70.46,-11.86,-0.98
2.801,0.34,0.44,0.95,71.27,-9.98,-1.18
2.82,0.4,0.44,0.77,59.94,9.51,-8.85
2.843,0.36,0.48,0.85,75.71,-6.99,-4.32
2.862,0.37,0.45,0.78,70.76,-3.97,-8.49
2.88,0.33,0.48,0.74,76.82,-0.67,-7.25
2.904,0.38,0.48,0.68,81.73,-1.97,-1.24
2.922,0.33,0.57,0.73,82.26,14.69,-2.46
2.941,0.29,0.59,0.7,81.42,4.15,-0.96
2.959,0.32,0.62,0.63,79.94,-8.09,-3.88
2.982,0.29,0.64,0.65,77.05,-13.01,-7.44
3.0,0.31,0.66,0.62,71.57,-15.53,-7.05
3.019,0.33,0.7,0.6,71.91,-10.69,-5.37
3.042,0.38,0.67,0.63,65.62,-9.3,-3.95
3.061,0.43,0.68,0.54,62.24,-7.85,-4.49
3.079,0.35,0.72,0.56,59.01,1.31,-4.15
3.1,0.33,0.73,0.58,54.52,7.56,1.31
3.12,0.32,0.74,0.59,52.76,9.51,3.6
3.144,0.31,0.73,0.6,50.93,10.29,2.21
3.16,0.3,0.75,0.6,51.44,6.47,1.98
3.18,0.31,0.75,0.59,55.01,1.48,2.67
3.2,0.32,0.75,0.57,56.61,1.19,0.75
3.22,0.34,0.75,0.54,59.48,2.52,4.15
3.24,0.33,0.75,0.5,63.76,7.15,7.15
3.264,0.31,0.76,0.46,66.26,12.47,7.91
3.28,0.29,0.77,0.4,68.14,9.86,5.51
3.3,0.27,0.79,0.31,75.25,0.53,1.94
3.324,0.3,0.83,0.23,78.43,-4.73,2.72
3.34,0.32,0.88,0.17,75.45,3.18,4.38
3.36,0.32,0.92,0.14,69.34,4.64,8.35
3.38,0.32,0.91,0.1,56.61,2.55,8.44
3.404,0.34,0.95,0.06,47.42,-2.58,6.69
3.422,0.36,0.99,0.02,41.3,-1.42,7.44
3.44,0.37,1.02,0.02,30.43,2.73,7.68
3.464,0.38,1.02,0.04,16.05,-0.76,7.05
3.482,0.42,0.99,0.11,-1.22,-6.52,5.07
3.5,0.44,0.98,0.18,-12.5,-7.04,1.85
3.519,0.44,0.95,0.27,-17.79,-7.83,-1.82
3.542,0.44,0.93,0.32,-21.88,-7.79,-4.18
3.56,0.43,0.9,0.39,-24.29,-5.63,-6.18
3.579,0.42,0.88,0.42,-23.27,-5.66,-8.52
3.602,0.39,0.87,0.43,-18.18,-2.56,-8.93
3.621,0.35,0.88,0.43,-13.76,5.69,-7.53
3.639,0.32,0.88,0.44,-10.9,9.05,-6.35
3.663,0.32,0.85,0.44,-8.47,7.68,-4.82
3.681,0.3,0.87,0.42,-5.36,6.61,-4.32
3.7,0.31,0.87,0.41,-2.31,7.53,-1.89
3.723,0.29,0.9,0.38,-1.08,7.85,-0.95
3.74,0.31,0.9,0.37,-1.13,4.9,0.92
3.76,0.31,0.91,0.37,-4.75,4.67,0.79
3.78,0.32,0.89,0.39,-6.21,3.37,1.37
3.8,0.33,0.86,0.4,-8.03,2.37,2.29
3.824,0.34,0.86,0.38,-6.11,-0.4,1.57
3.84,0.33,0.9,0.4,-3.21,1.39,2.52
3.86,0.34,0.88,0.42,-5.83,4.99,2.87
3.884,0.35,0.88,0.43,-6.09,-1.15,0.44
3.902,0.37,0.86,0.44,-4.63,-0.32,2.09
3.92,0.35,0.88,0.44,-5.44,6.82,1.27
3.94,0.35,0.87,0.42,-1.51,3.3,1.19
3.96,0.34,0.87,0.42,-2.0,5.11,0.98
3.98,0.34,0.88,0.42,-2.03,7.85,0.64
4.0,0.34,0.88,0.41,-2.31,6.61,0.93
