timestamp,acce_x,acce_y,acce_z,gyro_x,gyro_y,gyro_z
0.003,0.98,-0.21,0.24,-16.56,4.31,-7.05
0.011,0.99,-0.21,0.21,-18.63,4.06,-8.76
0.019,1.02,-0.21,0.19,-16.03,7.04,-6.89
0.024,1.01,-0.22,0.24,-15.02,11.45,-2.55
0.028,1.01,-0.22,0.25,-14.79,13.47,0.14
0.036,0.99,-0.23,0.27,-18.34,14.6,1.1
0.041,0.98,-0.25,0.24,-18.99,8.58,0.14
0.046,0.97,-0.26,0.25,-21.25,5.56,-1.53
0.05,0.93,-0.26,0.28,-27.16,5.88,-5.76
0.054,0.97,-0.25,0.24,-34.84,2.15,-13.97
0.059,0.95,-0.26,0.25,-37.94,1.6,-15.59
0.065,0.95,-0.26,0.2,-37.28,2.66,-18.67
0.07,0.99,-0.23,0.17,-38.08,12.53,-20.64
0.075,1.02,-0.22,0.11,-27.19,18.44,-16.84
0.079,1.04,-0.21,0.12,-12.99,17.88,-10.14
0.084,1.02,-0.21,0.18,-4.96,18.85,-5.04
0.088,0.97,-0.2,0.28,-8.92,20.02,-6.67
0.093,1.02,-0.2,0.31,-18.38,23.94,-9.05
0.097,0.97,-0.19,0.33,-25.28,23.11,-10.32
0.102,0.96,-0.19,0.32,-31.91,18.11,-16.02
0.106,0.94,-0.18,0.32,-40.61,16.73,-24.89
0.109,0.92,-0.17,0.36,-49.89,18.66,-35.24
0.111,0.94,-0.18,0.43,-61.42,32.55,-43.16
0.113,0.9,-0.17,0.51,-81.76,44.98,-58.61
0.115,0.98,-0.14,0.47,-100.08,57.27,-69.79
0.117,0.95,-0.1,0.43,-112.11,61.01,-75.33
0.119,0.89,-0.08,0.42,-121.45,34.23,-84.61
0.121,0.97,-0.04,0.31,-134.23,11.59,-92.06
0.123,1.05,-0.04,0.31,-131.59,11.76,-88.15
0.126,1.12,-0.01,0.42,-137.73,44.31,-80.67
0.127,1.05,0.02,0.61,-159.77,71.86,-81.89
0.129,1.05,0.04,0.58,-199.33,71.95,-96.67
0.132,0.99,0.08,0.42,-233.51,59.92,-102.96
0.134,0.88,0.09,0.42,-234.37,-15.21,-90.69
0.136,1.08,0.08,0.21,-232.26,0.56,-78.41
0.138,1.07,0.07,0.21,-214.34,4.32,-66.84
0.14,1.16,0.04,0.34,-212.55,55.82,-54.75
0.142,1.1,0.03,0.37,-207.71,118.58,-38.31
0.144,0.93,0.01,0.35,-195.82,122.67,-39.77
0.146,0.8,-0.04,0.36,-199.22,101.63,-50.66
0.148,0.81,-0.1,0.25,-203.01,96.56,-67.79
0.15,0.74,-0.13,0.35,-201.63,108.38,-87.1
0.152,0.87,-0.14,0.33,-199.01,158.72,-105.39
0.154,0.76,-0.15,0.45,-191.62,202.17,-119.79
0.156,0.82,-0.18,0.44,-180.9,228.11,-138.67
0.158,0.94,-0.17,0.45,-143.85,233.51,-127.65
0.16,0.95,-0.17,0.54,-100.14,229.63,-98.2
0.162,0.79,-0.13,0.57,-51.6,173.33,-75.69
0.164,0.75,-0.13,0.66,-13.15,109.79,-57.11
0.166,0.59,-0.13,0.92,-45.04,102.53,-62.24
0.168,0.64,-0.08,0.82,-69.94,104.61,-73.63
0.17,0.81,-0.1,0.73,-52.23,87.27,-63.04
0.172,0.82,-0.06,0.82,-31.74,75.6,-27.22
0.174,0.66,-0.13,0.88,-31.13,76.81,-12.12
0.176,0.46,-0.19,0.89,-32.15,13.88,-10.03
0.178,0.52,-0.21,0.8,-27.02,-37.28,-13.92
0.18,0.64,-0.19,0.81,-32.92,-24.37,-7.77
0.182,0.56,-0.2,0.78,-34.52,-9.15,-15.88
0.184,0.6,-0.2,0.79,-16.38,3.8,-18.78
0.187,0.63,-0.19,0.84,-7.97,14.82,-9.01
0.189,0.59,-0.22,0.83,-2.32,-2.08,-5.13
0.191,0.49,-0.22,0.89,7.02,-40.34,1.16
0.193,0.5,-0.21,1.01,-12.21,-39.65,-9.07
0.195,0.62,-0.21,0.85,-24.84,-39.89,-11.98
0.197,0.65,-0.23,0.7,-9.97,-32.38,-8.76
0.199,0.63,-0.2,0.65,17.31,-37.63,-10.32
0.201,0.71,-0.19,0.73,28.03,-29.01,-12.46
0.203,0.62,-0.17,0.77,23.04,-21.98,-23.13
0.204,0.65,-0.17,0.88,15.25,-17.83,-24.75
0.206,0.64,-0.15,0.84,10.12,-42.4,-22.81
0.208,0.66,-0.13,0.88,10.41,-69.66,-13.3
0.21,0.7,-0.16,0.82,18.44,-114.47,-6.46
0.212,0.72,-0.18,0.74,38.87,-147.13,4.92
0.214,0.71,-0.17,0.64,57.5,-169.91,15.69
0.216,0.72,-0.17,0.65,60.52,-176.89,18.26
0.218,0.66,-0.17,0.76,33.82,-186.23,5.69
0.219,0.68,-0.16,0.66,6.49,-165.48,-13.68
0.221,0.75,-0.13,0.59,2.18,-157.33,-22.87
0.223,0.83,-0.1,0.47,16.61,-150.38,-29.31
0.225,1.09,-0.1,0.17,47.21,-147.91,-19.01
0.227,1.16,-0.1,0.19,83.1,-144.79,19.01
0.229,0.83,-0.09,0.51,42.84,-173.95,30.0
0.231,0.83,-0.11,0.28,8.34,-195.62,8.53
0.233,0.98,-0.1,0.19,-8.06,-157.18,-6.05
0.235,1.08,-0.07,0.1,-12.15,-125.07,-6.64
0.237,1.07,-0.07,0.15,-19.15,-96.08,-1.56
0.239,1.09,-0.09,-0.07,-21.65,-44.61,-5.69
0.241,1.13,-0.12,-0.13,-11.82,13.53,-5.91
0.243,1.03,-0.09,-0.11,-2.79,9.47,-14.89
0.245,1.02,-0.09,-0.04,16.43,-14.52,-16.0
0.246,1.02,-0.04,0.1,7.76,-13.5,-16.11
0.249,1.15,-0.01,0.15,-2.95,-5.02,-13.91
0.251,1.24,-0.03,0.02,-9.92,13.77,-0.99
0.252,1.1,-0.02,-0.12,-11.22,29.33,3.33
0.254,1.05,-0.09,-0.06,13.65,-8.49,8.76
0.256,0.95,-0.14,-0.05,49.5,-25.33,9.73
0.258,0.88,-0.1,0.25,38.0,-63.54,-4.44
0.26,1.0,-0.03,0.21,19.73,-61.39,-12.58
0.261,1.12,-0.01,0.21,-18.18,-13.1,-21.6
0.263,1.15,0.03,0.15,-57.16,24.34,-23.42
0.266,1.26,-0.02,-0.0,-55.02,63.42,-6.64
0.268,1.05,-0.11,0.01,-30.6,63.95,10.93
0.27,0.84,-0.16,-0.07,4.21,17.92,11.79
0.272,0.83,-0.16,-0.0,18.2,-24.14,-6.84
0.274,1.04,-0.12,0.01,23.4,-38.98,-9.94
0.275,1.08,-0.04,0.12,-4.72,-21.65,-11.8
0.277,1.13,0.0,0.05,-16.44,15.71,-10.2
0.279,1.16,0.01,0.0,-13.6,58.0,-3.65
0.281,1.16,-0.03,-0.0,-4.29,91.22,4.15
0.283,1.02,-0.04,0.09,-5.47,107.04,9.95
0.285,0.91,-0.05,0.29,-27.74,37.76,-7.47
0.287,0.96,-0.1,0.12,-23.05,-3.11,-8.14
0.289,1.06,-0.09,0.08,-10.7,-15.02,-2.93
0.291,1.08,-0.07,0.11,-5.53,-12.47,-0.02
0.292,0.98,-0.07,0.26,-11.69,-16.38,-2.4
0.294,0.99,-0.06,0.19,-21.68,4.23,-4.99
0.296,0.95,-0.05,0.23,-33.48,13.27,-12.58
0.298,1.03,-0.05,0.17,-47.42,0.7,-19.89
0.3,1.05,-0.07,0.09,-35.05,0.63,-15.56
0.302,0.99,-0.06,0.19,-36.14,-54.72,-28.64
0.304,1.05,-0.08,0.03,-16.99,-57.66,-23.5
0.306,1.11,-0.06,0.02,-0.27,-23.82,-9.04
0.308,1.11,-0.05,0.03,10.56,13.3,2.49
0.31,1.05,-0.03,0.09,14.5,23.45,4.55
0.312,0.99,-0.01,0.14,3.24,13.69,0.72
0.313,1.07,-0.02,0.11,5.18,2.12,-5.56
0.316,1.08,-0.02,0.11,5.92,3.59,-0.5
0.318,1.04,-0.02,0.16,-0.78,-11.05,-4.56
0.32,1.0,-0.03,0.2,-11.13,-29.63,-7.25
0.321,1.01,-0.05,0.17,-16.98,-40.43,-7.62
0.323,1.03,-0.03,0.1,-23.8,-49.97,-10.37
0.325,1.05,-0.05,0.01,-14.34,-35.91,-2.47
0.327,0.96,-0.04,0.03,-18.96,-44.27,-10.41
0.329,0.94,-0.04,0.1,-29.47,-47.33,-17.62
0.331,1.05,-0.04,0.01,-30.05,-37.37,-17.8
0.333,1.03,-0.03,0.05,-33.22,-35.01,-16.35
0.335,1.09,-0.03,-0.02,-29.68,-27.31,-12.14
0.337,1.03,-0.01,0.07,-33.48,-31.13,-11.62
0.338,1.07,-0.01,0.04,-37.86,-26.66,-8.46
0.34,1.08,0.02,-0.01,-46.73,-25.1,-7.53
0.342,1.03,0.0,0.05,-56.02,-34.17,-8.7
0.344,1.07,0.02,-0.05,-61.16,-37.19,-7.68
0.346,1.04,0.01,-0.06,-57.16,-37.04,-7.18
0.348,1.03,0.01,-0.02,-50.6,-32.5,-5.3
0.35,1.01,0.02,-0.04,-49.19,-42.26,-7.79
0.352,1.07,0.01,-0.12,-36.17,-34.06,-5.48
0.354,1.13,0.01,-0.18,-32.52,-17.66,3.51
0.355,1.05,0.03,-0.16,-29.51,-6.0,8.93
0.358,1.04,0.02,-0.17,-24.08,-0.27,10.63
0.359,1.0,0.01,-0.17,-24.21,-3.1,9.83
0.361,1.0,-0.01,-0.14,-24.34,-14.69,6.05
0.363,1.0,-0.03,-0.23,-16.96,-18.08,3.83
0.365,0.99,-0.04,-0.2,-13.39,-21.31,-1.27
0.367,1.0,-0.04,-0.22,-5.47,-19.8,-4.92
0.369,1.04,-0.02,-0.21,-5.48,-11.08,-7.18
0.371,1.03,-0.01,-0.27,-2.32,-0.03,-10.34
0.372,0.99,-0.02,-0.23,5.88,16.99,-12.52
0.375,1.02,0.0,-0.23,10.11,7.92,-15.73
0.377,0.98,0.01,-0.13,13.25,-0.2,-17.74
0.378,0.97,0.02,-0.08,2.69,-14.29,-22.47
0.38,1.04,0.04,-0.11,-0.63,-19.74,-24.58
0.382,1.09,0.05,-0.15,-0.82,-12.06,-20.2
0.384,1.06,0.06,-0.1,-2.99,-2.31,-12.21
0.386,1.03,0.05,-0.11,-8.63,-2.26,-8.52
0.388,1.0,0.06,-0.13,-12.09,0.27,-7.34
0.39,1.0,0.05,-0.18,-8.85,-1.57,-9.53
0.392,1.01,0.05,-0.22,-8.98,-6.27,-13.11
0.393,1.03,0.05,-0.21,-2.81,-2.55,-12.18
0.395,1.02,0.06,-0.15,-1.59,-0.95,-12.53
0.397,1.04,0.06,-0.09,-7.51,-11.91,-12.38
0.399,1.05,0.07,-0.12,-13.73,-14.43,-10.67
0.401,1.07,0.08,-0.15,-16.2,-9.68,-7.07
0.403,1.05,0.07,-0.17,-16.08,-4.92,-4.09
0.405,1.05,0.06,-0.23,-12.31,-8.03,-5.36
0.407,1.03,0.05,-0.26,-6.9,-2.64,-5.59
0.408,1.04,0.06,-0.3,2.37,6.31,-5.4
0.41,1.0,0.09,-0.18,4.52,-1.15,-6.61
0.412,1.03,0.09,-0.18,0.69,-16.52,-10.67
0.414,1.08,0.09,-0.22,4.55,-4.56,-5.88
0.416,1.04,0.11,-0.1,-7.77,-8.27,-6.11
0.418,1.09,0.1,-0.18,-6.37,-6.41,-1.28
0.42,1.05,0.08,-0.22,-1.28,3.36,3.31
0.421,1.01,0.08,-0.21,2.05,0.17,1.5
0.423,1.02,0.06,-0.26,9.59,7.01,1.91
0.425,0.95,0.06,-0.17,15.1,3.01,1.39
0.427,0.98,0.07,-0.14,3.51,-5.42,-4.66
0.429,1.03,0.07,-0.17,2.32,4.05,-2.87
0.43,1.0,0.09,-0.17,-0.38,7.24,-2.93
0.432,1.0,0.08,-0.19,-4.56,2.89,-5.48
0.434,1.05,0.09,-0.21,-5.45,-2.5,-7.34
0.436,1.04,0.07,-0.19,-1.71,-1.33,-4.93
0.438,1.05,0.08,-0.17,0.38,-1.5,-3.28
0.44,1.06,0.08,-0.21,3.18,2.9,0.35
0.442,1.01,0.08,-0.13,-4.24,-11.19,-3.73
0.444,1.06,0.08,-0.21,-3.16,-9.5,-1.04
0.445,1.02,0.08,-0.16,-3.65,-5.66,-0.55
0.447,1.04,0.07,-0.18,-4.29,-5.85,-0.52
0.449,1.03,0.06,-0.24,-0.81,2.14,0.58
0.451,1.03,0.06,-0.2,3.77,6.64,0.61
0.453,1.02,0.06,-0.2,7.63,6.37,0.7
0.455,1.01,0.07,-0.17,-2.47,-2.56,-2.2
0.457,1.01,0.07,-0.19,-4.26,-8.4,-3.24
0.458,1.03,0.07,-0.21,-0.27,-13.86,-3.34
0.46,1.05,0.07,-0.22,5.8,-16.82,-1.45
0.462,1.01,0.09,-0.19,5.5,-14.72,0.79
0.464,1.01,0.07,-0.21,-3.44,-18.9,-2.29
0.466,1.02,0.06,-0.22,-2.37,-18.05,-3.76
0.468,1.05,0.07,-0.25,6.82,-11.16,-0.21
0.47,1.03,0.08,-0.19,7.76,-7.97,1.91
0.471,1.03,0.07,-0.25,4.05,-3.85,1.69
0.473,1.02,0.09,-0.17,-0.85,-7.69,2.64
0.475,1.07,0.08,-0.26,1.45,-4.52,7.71
0.477,1.04,0.08,-0.26,-2.12,-1.68,11.34
0.478,1.0,0.06,-0.21,-3.65,-3.85,11.4
0.48,1.02,0.06,-0.25,-4.02,-3.65,10.87
0.482,1.01,0.05,-0.28,-0.96,1.47,9.57
0.484,1.02,0.04,-0.29,2.67,11.53,9.11
0.486,1.01,0.04,-0.25,3.53,11.97,7.1
0.488,1.02,0.03,-0.25,2.61,10.29,5.51
0.49,1.0,0.04,-0.25,2.05,8.32,3.6
0.491,1.0,0.04,-0.21,1.59,2.11,1.91
0.493,1.04,0.03,-0.26,4.78,2.24,2.93
0.495,1.01,0.02,-0.23,7.3,0.92,2.58
0.497,1.03,0.03,-0.33,15.01,5.21,0.26
0.499,1.09,0.02,-0.36,34.6,21.77,1.71
0.501,1.08,0.02,-0.35,59.21,49.31,5.54
0.503,1.01,0.03,-0.3,71.08,58.4,5.85
0.505,1.01,0.03,-0.24,73.59,25.76,2.2
0.506,1.0,0.02,-0.27,91.05,34.11,3.39
0.508,0.94,0.0,-0.04,82.56,14.49,-3.48
0.51,1.0,0.01,-0.12,78.4,7.73,-7.92
0.512,1.08,0.01,-0.11,78.49,5.85,-5.66
0.514,1.08,0.02,-0.12,75.39,4.6,0.99
0.515,1.03,-0.01,-0.12,70.93,15.04,2.24
0.517,1.03,-0.02,-0.26,80.78,32.95,1.86
0.519,0.98,-0.05,-0.24,108.12,60.5,-1.11
0.521,0.94,-0.02,-0.1,106.05,33.39,-6.89
0.523,0.99,-0.02,-0.09,112.02,27.37,-10.23
0.525,1.01,0.04,0.06,111.11,-7.88,-9.62
0.527,1.07,0.05,0.02,101.74,-22.08,-6.0
0.529,0.99,0.01,0.08,83.02,-47.63,-3.5
0.53,1.08,-0.01,-0.15,83.21,-41.1,-2.89
0.532,1.06,-0.03,-0.14,88.02,-19.13,-4.4
0.534,1.03,-0.01,-0.08,90.41,-13.6,-5.31
0.536,1.1,0.0,-0.08,93.4,-5.48,-3.19
0.538,1.11,-0.02,-0.09,78.98,3.6,3.11
0.54,1.03,-0.02,-0.09,72.66,16.2,4.69
0.541,1.02,-0.02,-0.18,74.72,7.27,1.15
0.543,1.03,-0.04,-0.12,80.67,19.19,0.41
0.566,1.01,-0.06,-0.03,66.17,6.53,-2.32
0.584,1.03,-0.03,-0.06,57.48,-3.19,-3.88
0.603,1.03,-0.04,-0.02,44.05,-16.34,-2.0
0.626,1.04,-0.05,-0.14,36.44,-14.79,-1.83
0.644,1.01,-0.07,-0.11,36.73,-16.73,-5.59
0.667,1.03,-0.1,-0.2,43.24,-8.58,-10.58
0.686,1.04,-0.09,-0.2,51.33,-10.75,-14.95
0.705,1.08,-0.09,-0.17,59.95,-9.05,-15.71
0.727,1.07,-0.07,-0.19,61.3,1.4,-15.3
0.745,1.05,-0.05,-0.16,59.45,4.18,-14.35
0.764,1.09,-0.06,-0.23,68.12,10.12,-9.45
0.786,1.03,-0.08,-0.11,72.93,13.77,-7.08
0.805,0.95,-0.02,-0.08,66.69,-2.09,-7.76
0.825,1.0,-0.03,-0.15,62.4,-11.56,-10.47
0.846,0.98,-0.06,-0.15,75.39,-13.24,-18.75
0.865,0.98,-0.07,-0.15,59.69,-2.85,-25.13
0.884,1.0,-0.06,-0.19,63.24,2.2,-31.65
0.906,1.04,-0.02,-0.2,76.14,8.63,-31.3
0.925,1.04,0.03,-0.16,77.48,11.42,-28.47
0.943,1.02,0.03,-0.12,75.44,-1.04,-26.2
0.966,1.0,0.01,-0.1,77.73,-0.46,-26.14
0.984,0.92,-0.01,-0.24,76.98,9.63,-39.11
1.007,0.96,0.01,-0.33,74.89,32.31,-60.44
1.026,1.1,0.13,-0.02,80.18,35.19,-50.87
1.044,1.2,0.14,-0.02,79.69,39.86,-27.62
1.067,0.98,0.06,-0.0,26.43,61.08,-35.33
1.086,0.84,0.21,-0.08,0.7,16.15,-48.35
1.104,0.96,0.2,-0.09,54.27,-33.71,-45.45
1.13,1.18,0.22,-0.11,99.85,-30.93,-26.03
1.145,1.17,0.2,0.0,97.19,-24.06,-14.67
1.164,1.05,0.16,0.06,78.73,-5.5,-13.04
1.187,0.96,0.12,-0.07,37.01,14.5,-25.16
1.206,0.98,0.16,-0.28,56.18,8.93,-32.05
1.224,1.14,0.18,-0.07,82.89,7.22,-25.56
1.247,1.21,0.17,0.02,80.52,31.59,-9.07
1.265,1.04,0.16,0.07,55.42,45.4,1.76
1.284,0.95,0.17,-0.06,37.25,22.14,-6.66
1.307,1.01,0.17,-0.09,53.65,5.63,-7.08
1.326,1.05,0.18,0.03,49.98,-13.69,-6.73
1.345,1.08,0.18,0.08,49.65,-4.17,-0.44
1.363,1.07,0.16,-0.02,30.23,8.27,1.92
1.386,1.01,0.15,0.01,17.4,16.72,-1.25
1.404,1.01,0.15,-0.01,9.4,12.72,-7.86
1.424,1.04,0.16,-0.02,2.7,-2.02,-7.01
1.446,1.04,0.17,0.01,27.76,9.44,-2.7
1.465,1.07,0.16,-0.02,20.87,12.85,0.93
1.484,1.02,0.16,-0.06,18.56,18.27,3.77
1.506,1.0,0.15,-0.04,21.25,21.11,2.64
1.525,1.03,0.16,-0.08,24.44,30.21,2.56
1.545,1.05,0.16,-0.01,32.29,39.42,2.67
1.567,1.1,0.16,0.0,39.22,53.44,9.02
1.586,1.11,0.16,0.06,36.05,57.16,15.01
1.604,1.05,0.14,0.05,28.75,51.56,20.72
1.627,0.97,0.1,0.05,17.25,35.47,17.54
1.646,1.05,0.12,-0.02,24.55,24.84,14.53
1.665,1.11,0.11,0.05,34.18,20.87,17.22
1.684,1.07,0.12,0.15,33.08,34.55,22.92
1.706,1.0,0.09,0.13,30.35,36.12,25.3
1.725,1.0,0.08,0.07,29.39,14.38,24.87
1.744,1.0,0.08,0.08,30.29,9.4,20.95
1.766,1.01,0.06,0.11,25.77,11.21,16.02
1.785,1.04,0.05,0.11,22.66,15.01,14.99
1.803,1.02,0.07,0.05,30.2,15.16,17.16
1.826,1.0,0.04,0.13,32.81,10.38,17.1
1.846,0.98,0.04,0.18,25.19,15.33,16.2
1.864,0.97,0.04,0.11,17.48,28.5,14.72
1.887,0.99,0.04,0.05,20.7,26.87,11.74
1.905,1.07,0.07,-0.01,36.02,24.06,12.49
1.924,1.06,0.06,0.03,58.43,28.41,18.64
1.973,1.11,0.09,0.05,78.34,37.66,26.73
1.977,1.06,0.11,0.06,94.03,35.68,32.32
1.984,1.0,0.08,0.14,105.08,24.72,34.82
2.004,0.99,0.1,0.17,124.4,22.46,36.14
2.026,0.96,0.11,0.16,139.44,11.13,31.01
2.045,0.95,0.1,0.21,152.61,17.59,23.07
2.064,0.96,0.06,0.33,151.04,29.74,17.02
2.086,1.03,0.07,0.48,128.35,41.24,17.28
2.105,0.99,0.02,0.6,94.26,19.66,22.06
2.125,0.92,-0.02,0.61,53.21,13.88,19.31
2.146,0.9,0.01,0.51,13.94,5.51,8.73
2.163,0.89,-0.0,0.36,-0.73,-5.98,-0.53
2.187,0.97,0.02,0.27,-1.37,-18.89,-2.93
2.206,1.08,0.02,0.26,-3.19,-6.15,3.21
2.224,1.01,0.01,0.27,-1.4,-2.5,6.27
2.243,0.99,-0.02,0.26,1.42,1.53,7.39
2.264,0.94,-0.0,0.25,-3.15,2.92,1.89
2.287,0.99,0.01,0.22,0.32,-5.88,-4.67
2.306,1.03,-0.01,0.24,-0.14,0.95,-3.27
2.324,1.04,0.01,0.24,0.87,3.18,0.17
2.343,1.03,0.02,0.25,0.69,-0.14,1.19
2.363,0.98,0.04,0.29,-3.3,-4.52,0.92
2.387,0.99,0.02,0.32,-6.4,-5.95,-1.85
2.406,0.96,0.01,0.33,-11.98,-6.37,-4.35
2.425,1.05,-0.0,0.27,-19.05,3.1,-2.63
2.443,1.06,0.02,0.19,-17.45,7.83,3.94
2.466,0.98,0.01,0.18,-12.18,1.13,6.12
2.485,0.97,-0.03,0.23,-6.69,-2.21,2.53
2.504,0.99,-0.03,0.26,-9.1,0.82,-2.14
2.526,0.99,-0.03,0.28,-11.91,2.89,-5.8
2.545,1.03,-0.0,0.22,-15.15,1.82,-3.77
2.564,1.05,-0.0,0.19,-5.11,1.76,1.79
2.587,1.0,0.01,0.26,-7.36,5.77,3.5
2.604,0.98,-0.02,0.28,-2.34,-7.21,1.31
2.627,0.95,-0.03,0.35,-9.56,-10.35,-2.47
2.646,1.03,-0.03,0.32,-25.51,-2.17,-5.45
2.663,0.99,-0.01,0.2,-24.4,-6.69,-6.35
2.687,1.01,-0.02,0.23,-17.15,-2.81,-5.66
2.705,1.04,-0.02,0.21,-21.11,13.57,-2.11
2.725,1.01,0.0,0.18,-18.47,6.05,-3.53
2.747,1.07,0.01,0.21,-11.57,5.91,0.17
2.766,1.05,0.0,0.2,-11.76,6.02,3.6
2.784,1.04,-0.02,0.2,-4.11,-7.54,1.42
2.803,1.02,-0.02,0.25,-3.21,-3.36,2.79
2.826,0.99,-0.04,0.26,-8.5,0.5,2.09
2.845,0.97,-0.06,0.24,-7.07,-0.37,0.52
2.865,0.97,-0.05,0.25,-10.5,-3.11,-1.69
2.886,0.97,-0.05,0.22,-6.46,-1.95,-2.9
2.905,0.97,-0.05,0.24,-7.5,-1.73,-7.33
2.925,0.98,-0.06,0.23,-7.16,-2.21,-9.27
2.946,0.94,-0.04,0.31,-9.77,-4.44,-14.49
2.965,1.03,-0.01,0.25,-11.76,-10.49,-18.12
2.984,1.09,0.01,0.2,-8.41,-6.98,-13.47
3.006,1.06,0.02,0.23,-10.15,-0.44,-9.19
3.025,1.03,0.01,0.22,-8.58,-5.77,-5.1
3.044,1.05,0.0,0.24,-7.95,-6.21,-3.79
3.066,1.06,0.02,0.17,-11.25,4.55,-0.52
3.085,1.04,-0.01,0.18,-1.68,2.73,1.19
3.104,1.04,-0.02,0.22,-0.6,10.96,3.13
3.127,0.94,-0.02,0.26,-3.1,0.49,-0.78
3.145,0.99,-0.02,0.27,-2.95,0.55,-1.57
3.163,0.98,-0.02,0.27,0.5,-13.05,-3.85
3.187,1.01,-0.04,0.31,-1.59,-8.78,-1.79
3.206,0.93,-0.04,0.3,-11.47,-12.4,-4.0
3.224,1.01,-0.04,0.23,-11.74,-13.77,-7.05
3.247,1.06,-0.02,0.16,-9.11,-1.73,-3.82
3.266,1.03,-0.02,0.19,0.11,-0.02,-2.61
3.284,1.05,-0.01,0.23,2.09,8.75,-0.58
3.307,1.01,-0.01,0.26,1.01,4.81,-0.92
3.326,1.04,-0.01,0.26,3.01,0.66,-0.31
3.345,1.02,-0.02,0.26,-4.44,3.54,1.25
3.364,0.97,-0.03,0.28,-6.98,-6.02,-2.41
3.386,1.02,-0.04,0.23,-6.75,-1.31,-3.47
3.405,1.02,-0.02,0.21,-7.31,5.95,-4.75
3.424,1.0,-0.02,0.21,2.6,-1.37,-8.08
3.446,1.02,-0.03,0.25,3.47,2.99,-7.62
3.465,1.01,-0.01,0.28,2.02,3.42,-6.93
3.484,1.03,-0.01,0.27,-2.26,1.01,-8.0
3.507,1.0,0.0,0.27,-7.13,-0.41,-7.76
3.525,1.02,0.01,0.26,-9.07,-5.83,-8.53
3.544,1.03,0.02,0.25,-12.49,-0.05,-5.08
3.567,0.99,0.04,0.22,-11.31,-4.32,-4.37
3.585,1.04,0.03,0.23,-12.56,-2.41,-0.52
3.605,1.02,0.03,0.24,-11.39,-0.98,2.99
3.627,1.06,0.02,0.21,-8.38,0.49,6.02
3.646,1.05,0.0,0.21,-9.44,-8.63,7.44
3.667,1.02,-0.03,0.2,-8.47,-9.79,10.08
3.685,0.98,-0.04,0.21,-10.47,-12.92,8.4
3.704,0.99,-0.06,0.22,-12.37,-11.82,4.08
3.727,1.0,-0.06,0.21,-13.01,-4.96,0.7
3.746,1.01,-0.05,0.21,-12.72,2.09,-1.27
3.764,1.03,-0.03,0.23,-15.28,6.69,-1.19
3.787,1.05,-0.03,0.23,-15.66,2.4,0.93
3.806,1.04,-0.04,0.27,-17.22,-1.27,4.32
3.824,1.04,-0.02,0.33,-29.42,-2.66,6.69
3.843,1.02,-0.04,0.31,-37.56,-5.59,6.67
3.866,1.03,-0.03,0.25,-47.97,-8.05,6.32
3.884,1.03,-0.04,0.2,-47.79,-7.57,6.73
3.903,1.08,-0.04,0.16,-40.44,-7.24,10.38
3.926,1.05,-0.08,0.26,-39.86,-5.04,12.08
3.945,1.04,-0.08,0.3,-52.06,3.05,14.12
3.963,1.05,-0.09,0.29,-64.34,13.24,16.03
3.986,0.98,-0.09,0.24,-73.51,9.01,11.56
