timestamp,acce_x,acce_y,acce_z,gyro_x,gyro_y,gyro_z
0.0,0.3,0.97,0.07,12.0,1.27,2.0
0.02,0.31,0.97,0.05,14.69,2.73,1.19
0.04,0.29,0.98,0.03,14.61,0.66,-0.12
0.07,0.3,0.98,0.01,15.22,-0.93,-0.72
0.09,0.34,0.93,-0.02,11.73,4.98,-2.15
0.11,0.3,0.96,0.02,10.61,2.37,-4.63
0.14,0.3,1.0,-0.02,7.73,5.53,-3.47
0.16,0.27,1.0,-0.0,4.47,4.82,-2.35
0.18,0.26,1.0,0.02,2.5,1.88,-2.44
0.21,0.26,0.99,0.02,2.64,2.92,-1.13
0.23,0.26,0.98,0.04,6.27,3.24,0.64
0.25,0.26,0.99,0.02,7.65,1.82,1.66
0.28,0.28,0.97,-0.01,8.73,0.41,2.61
0.3,0.29,0.98,-0.06,7.5,1.53,2.53
0.32,0.29,0.98,-0.07,3.82,0.09,2.17
0.35,0.31,0.99,-0.11,-1.97,-2.0,0.6
0.37,0.32,0.97,-0.13,-5.24,0.15,0.34
0.39,0.33,0.98,-0.15,-9.27,-2.49,-1.44
0.42,0.32,0.97,-0.16,-17.91,-3.13,-2.79
0.44,0.41,1.04,-0.24,-24.58,2.89,-1.97
0.47,0.29,0.97,-0.12,-29.71,-5.25,-3.82
0.49,0.29,0.97,-0.13,-33.39,-8.37,-3.34
0.52,0.31,0.95,-0.13,-37.08,-9.13,-3.57
0.54,0.31,0.96,-0.15,-42.55,-9.16,-4.82
0.57,0.31,0.94,-0.2,-54.17,-14.44,-5.42
0.59,0.44,0.88,-0.21,-63.54,4.37,0.41
0.62,0.36,0.92,-0.22,-85.4,-8.27,-13.08
0.64,0.34,0.9,-0.17,-104.43,-5.53,-13.34
0.67,0.36,0.84,-0.17,-123.24,-12.09,-17.92
0.69,0.37,0.82,-0.18,-144.56,-1.66,-24.15
0.72,0.26,0.74,-0.04,-187.51,10.55,-30.17
0.74,0.22,0.68,0.06,-207.15,7.02,-24.96
0.77,0.27,0.56,0.23,-203.74,-2.53,-15.22
0.79,0.29,0.49,0.41,-215.57,12.92,-23.89
0.82,0.26,0.37,0.7,-213.1,15.44,-37.77
0.84,0.25,0.33,0.75,-181.62,3.07,-40.17
0.87,0.22,0.34,0.87,-168.41,26.99,-48.99
0.89,0.21,0.31,0.87,-172.06,50.87,-50.89
0.92,0.24,0.24,0.85,-141.6,8.23,-45.36
0.94,0.24,0.26,0.85,-151.27,14.9,-52.46
0.97,0.07,0.17,1.09,-160.12,3.8,-56.72
0.99,-0.02,0.14,1.16,-146.89,-23.3,-55.39
1.02,0.06,0.15,1.07,-117.16,-14.73,-45.42
1.04,-0.01,0.12,1.06,-113.56,-4.35,-39.92
1.07,-0.02,0.05,1.06,-102.21,3.42,-21.07
1.09,0.05,0.03,0.99,-98.23,7.25,-24.6
1.12,-0.1,-0.0,1.12,-100.23,18.14,-14.31
1.14,-0.13,-0.04,1.17,-91.47,3.82,-7.97
1.17,-0.06,-0.1,1.13,-76.82,15.6,2.67
1.19,-0.07,-0.12,1.09,-76.08,22.64,3.85
1.22,-0.0,-0.19,1.13,-70.99,26.81,9.51
1.24,-0.04,-0.2,1.16,-66.56,16.78,8.87
1.27,-0.07,-0.2,1.15,-51.33,-5.91,12.02
1.29,-0.0,-0.21,1.06,-39.21,-12.17,15.27
1.32,0.06,-0.24,1.04,-33.15,5.91,15.97
1.34,0.01,-0.35,1.62,-56.66,33.65,41.45
1.37,0.06,-0.22,0.89,-32.27,6.85,31.16
1.39,0.12,-0.3,1.03,-25.48,17.3,30.78
1.42,0.08,-0.31,1.04,-12.98,6.95,16.38
1.44,0.07,-0.24,1.02,-19.59,19.47,10.08
1.47,0.1,-0.25,0.78,3.53,0.58,6.98
1.49,0.05,-0.24,0.93,-7.1,-5.37,-0.44
1.51,0.02,-0.28,1.02,-5.4,-8.37,-0.82
1.54,0.02,-0.22,0.97,9.47,-11.1,4.15
1.56,0.03,-0.24,0.97,8.15,-20.2,1.82
1.58,0.05,-0.19,0.82,8.76,-0.17,-1.3
2.13,0.07,-0.16,0.97,-4.21,1.01,-2.31
2.15,0.06,-0.15,0.96,-3.37,-0.72,-2.61
2.18,0.07,-0.16,0.96,-2.12,-0.46,-1.86
2.2,0.05,-0.16,0.99,-1.57,-0.84,-2.34
2.23,0.05,-0.19,0.9,1.77,-3.37,-2.75
2.25,0.12,-0.12,0.96,-2.43,1.73,1.47
2.27,0.11,-0.15,0.98,-0.27,0.92,-0.81
2.3,0.05,-0.2,0.91,5.27,-1.33,-2.44
2.32,0.11,-0.12,1.04,-0.92,1.27,-3.02
2.34,0.09,-0.14,0.95,0.82,-0.35,-3.69
2.37,0.1,-0.15,0.94,2.37,2.15,-3.69
2.39,0.06,-0.16,0.94,5.24,3.3,-3.33
2.41,0.13,-0.13,0.95,4.43,3.42,-3.8
2.44,0.02,-0.18,0.9,8.73,-4.81,-5.04
2.46,0.12,-0.14,0.9,7.48,3.31,-1.6
2.48,0.07,-0.13,1.0,11.51,1.21,-4.47
2.51,0.1,-0.17,0.93,12.84,2.79,-0.93
2.53,0.09,-0.1,0.97,14.26,-0.17,-3.27
2.56,0.09,-0.13,0.96,7.98,-4.02,-2.23
2.58,0.12,-0.15,0.91,14.06,-7.77,1.86
2.6,0.04,-0.13,0.98,20.84,-11.6,-3.27
2.63,0.12,-0.08,0.93,18.99,-5.88,1.6
2.65,0.1,-0.08,0.93,16.23,-7.08,0.55
2.67,0.11,-0.07,0.92,14.38,-7.01,-0.05
2.7,0.13,-0.06,0.89,11.25,-1.33,-0.02
2.72,0.12,-0.03,0.88,8.18,-4.52,-1.19
2.75,0.18,-0.05,0.88,7.57,-0.63,-2.08
2.77,0.13,-0.04,0.91,6.06,-1.82,-2.69
2.79,0.13,-0.04,0.93,6.31,-0.52,-3.11
2.82,0.1,-0.04,0.99,6.2,0.52,-3.15
2.84,0.1,-0.04,1.01,8.05,-3.37,-1.68
2.86,0.11,-0.02,1.02,11.04,-2.82,-1.05
2.89,0.11,-0.02,0.99,14.17,-3.36,-0.27
2.91,0.11,-0.01,0.99,14.27,-3.13,0.06
2.94,0.1,-0.0,1.0,14.95,-3.86,1.62
2.96,0.12,0.0,0.97,16.47,-5.48,2.12
2.98,0.13,0.02,0.96,15.48,-5.36,2.15
3.01,0.14,0.02,0.98,15.74,-5.51,2.84
3.03,0.15,0.02,0.97,17.37,-5.01,2.38
3.05,0.15,0.03,0.96,17.19,-4.44,1.59
3.08,0.14,0.03,0.96,18.56,-5.24,1.45
3.1,0.15,0.04,0.95,19.28,-7.94,2.17
3.12,0.16,0.05,0.93,20.47,-8.58,1.89
3.15,0.16,0.06,0.93,19.11,-6.84,2.15
3.17,0.17,0.06,0.94,20.2,-8.53,2.5
3.19,0.17,0.08,0.91,19.33,-9.3,1.82
3.22,0.19,0.1,0.91,16.5,-5.91,0.93
3.24,0.18,0.1,0.95,16.73,-3.91,1.39
3.26,0.17,0.1,0.95,18.75,-2.79,1.11
3.29,0.17,0.13,0.94,17.44,-4.49,0.06
3.31,0.18,0.13,0.96,15.82,-3.45,-0.61
3.33,0.15,0.13,1.0,17.82,-4.79,0.34
3.36,0.16,0.16,0.98,22.38,-7.33,1.16
3.38,0.18,0.17,0.96,21.51,-6.78,1.42
3.4,0.18,0.17,0.96,19.83,-6.11,1.62
3.43,0.18,0.17,0.98,22.12,-7.04,2.27
3.45,0.19,0.18,0.96,23.16,-6.43,2.21
3.47,0.2,0.2,0.94,22.6,-6.05,2.75
3.5,0.19,0.19,0.95,21.97,-6.84,2.6
3.52,0.24,0.2,0.93,22.61,-2.46,1.8
3.54,0.21,0.21,0.92,22.9,-6.49,1.91
3.57,0.23,0.22,0.89,21.97,-6.92,1.73
3.59,0.17,0.2,0.97,18.76,-11.25,1.01
3.61,0.22,0.23,0.92,19.68,-6.27,2.08
3.64,0.23,0.25,0.91,20.12,-5.5,1.73
3.66,0.23,0.25,0.92,19.25,-6.18,0.96
3.68,0.22,0.26,0.93,19.69,-7.89,1.11
3.71,0.22,0.27,0.95,21.95,-9.39,0.44
3.73,0.23,0.29,0.93,22.69,-7.63,1.47
3.75,0.23,0.3,0.94,23.53,-8.67,1.71
3.78,0.24,0.31,0.91,24.85,-7.01,1.73
3.8,0.25,0.32,0.92,24.7,-7.95,1.54
3.82,0.25,0.32,0.95,26.78,-7.82,0.38
3.85,0.26,0.34,0.93,30.69,-7.92,1.44
3.87,0.27,0.36,0.9,31.04,-7.21,0.7
3.89,0.26,0.37,0.89,31.45,-7.97,0.98
3.92,0.28,0.39,0.87,33.48,-6.7,-0.38
3.94,0.29,0.4,0.85,31.5,-6.14,0.23
3.96,0.29,0.4,0.83,26.53,-7.59,-1.11
3.99,0.34,0.44,0.71,24.49,-0.95,-2.44
4.01,0.29,0.43,0.77,16.75,0.18,-3.47
4.03,0.28,0.43,0.81,12.78,0.05,-3.62
4.06,0.27,0.43,0.84,14.63,1.19,-3.16
4.08,0.27,0.43,0.85,14.55,0.06,-3.42
4.1,0.26,0.43,0.85,15.33,-1.56,-2.72
4.13,0.27,0.44,0.86,18.52,-4.18,-1.92
4.15,0.27,0.45,0.87,20.89,-5.47,-1.85
4.17,0.26,0.45,0.88,24.32,-7.83,-0.82
4.2,0.28,0.47,0.83,25.77,-9.33,-0.35
4.22,0.28,0.49,0.83,26.35,-8.89,-0.29
4.24,0.28,0.49,0.81,27.19,-9.71,0.72
4.27,0.28,0.51,0.78,25.28,-10.82,1.53
4.29,0.29,0.51,0.8,26.99,-9.88,1.77
4.31,0.29,0.52,0.78,28.31,-10.41,3.16
4.34,0.29,0.53,0.77,26.98,-11.54,3.47
4.36,0.31,0.55,0.76,28.18,-11.74,3.63
4.38,0.32,0.55,0.74,27.6,-10.12,3.01
4.41,0.33,0.57,0.72,26.41,-8.79,2.81
4.43,0.34,0.59,0.7,24.29,-6.73,2.11
4.45,0.35,0.59,0.69,21.07,-4.72,1.74
4.48,0.36,0.6,0.69,17.56,-1.37,0.23
4.5,0.34,0.6,0.71,17.22,0.73,0.38
4.52,0.35,0.61,0.71,15.91,1.13,0.02
4.55,0.35,0.62,0.7,13.19,0.23,-1.21
4.57,0.34,0.62,0.72,11.91,3.08,-1.25
4.59,0.35,0.61,0.73,14.11,6.44,-0.79
4.62,0.34,0.64,0.7,15.82,5.07,-0.17
4.64,0.33,0.64,0.71,14.53,1.44,-0.69
4.66,0.34,0.63,0.69,14.78,1.42,-0.32
4.69,0.34,0.65,0.69,14.87,2.55,-0.09
4.71,0.33,0.66,0.68,14.72,1.65,0.05
4.73,0.35,0.67,0.65,13.94,3.04,-0.53
4.76,0.33,0.67,0.69,10.92,3.36,-0.5
4.78,0.33,0.67,0.69,12.52,2.75,0.03
4.8,0.34,0.67,0.68,13.19,2.95,0.23
4.83,0.33,0.67,0.67,14.0,4.08,-0.44
4.85,0.33,0.67,0.67,15.25,4.24,0.29
4.87,0.33,0.69,0.65,13.97,4.58,-0.03
4.9,0.33,0.68,0.67,13.28,4.03,0.41
4.92,0.33,0.69,0.66,14.81,6.21,0.61
4.94,0.34,0.69,0.64,15.66,5.3,0.6
4.97,0.34,0.69,0.62,12.95,6.95,0.15
4.99,0.33,0.7,0.63,11.21,7.45,0.64
5.01,0.34,0.7,0.63,12.53,5.47,0.79
5.04,0.35,0.71,0.6,11.48,8.61,-0.21
5.06,0.32,0.71,0.62,10.15,7.1,-0.24
5.08,0.32,0.71,0.63,11.57,5.57,-0.02
5.11,0.33,0.73,0.61,14.14,6.69,-0.09
5.13,0.33,0.73,0.62,12.12,5.92,-0.08
5.15,0.32,0.72,0.63,13.74,3.92,-0.06
5.18,0.32,0.75,0.6,17.77,5.21,0.79
5.2,0.32,0.75,0.59,18.46,5.13,0.56
5.22,0.32,0.76,0.6,16.98,7.68,0.9
5.25,0.3,0.76,0.6,18.29,4.69,1.5
5.27,0.32,0.77,0.58,17.45,3.74,1.08
5.29,0.31,0.77,0.56,17.28,4.34,1.15
5.32,0.3,0.76,0.57,18.14,4.5,2.35
5.34,0.33,0.77,0.56,18.81,5.77,2.21
5.36,0.32,0.78,0.52,16.31,5.77,2.14
5.39,0.33,0.77,0.51,14.0,8.12,1.77
5.41,0.33,0.78,0.49,13.01,8.76,1.59
5.43,0.34,0.78,0.48,11.08,8.66,1.66
5.46,0.32,0.77,0.51,6.69,10.81,1.05
5.48,0.32,0.76,0.53,8.46,8.32,1.27
5.5,0.34,0.77,0.52,8.66,8.85,1.04
5.53,0.31,0.78,0.52,8.52,9.68,1.22
5.55,0.31,0.78,0.54,9.04,9.42,1.73
5.57,0.31,0.78,0.54,11.1,8.09,1.34
5.6,0.29,0.78,0.53,14.46,5.91,2.82
5.62,0.33,0.8,0.51,15.82,4.05,2.72
5.64,0.32,0.8,0.52,15.1,6.99,3.71
5.67,0.32,0.82,0.51,18.44,5.24,2.98
5.69,0.31,0.83,0.51,18.34,5.25,2.6
5.71,0.3,0.85,0.49,18.35,1.3,1.91
5.74,0.33,0.83,0.48,19.11,4.7,4.35
5.76,0.33,0.85,0.45,18.21,6.35,3.71
5.78,0.34,0.81,0.43,20.37,7.24,4.26
5.81,0.33,0.85,0.43,15.77,7.13,1.77
5.83,0.32,0.84,0.44,14.09,6.5,1.62
5.85,0.32,0.86,0.44,11.85,2.58,0.21
5.88,0.32,0.84,0.44,14.92,4.81,2.32
5.9,0.32,0.83,0.43,16.9,3.57,1.74
5.92,0.34,0.85,0.42,17.4,3.85,0.63
5.95,0.33,0.86,0.41,17.28,4.18,0.56
5.97,0.33,0.86,0.4,18.05,4.17,1.16
5.99,0.35,0.86,0.37,19.3,8.67,1.63
6.02,0.36,0.86,0.35,20.96,20.96,-0.44
6.04,0.35,0.89,0.34,22.43,34.64,-3.5
6.06,0.31,0.9,0.32,18.38,32.17,-3.36
6.09,0.26,0.9,0.37,14.41,22.14,-2.56
6.11,0.26,0.9,0.38,11.92,15.31,-1.88
6.13,0.26,0.9,0.38,12.82,8.66,-0.87
6.16,0.27,0.9,0.4,14.55,3.56,1.19
6.18,0.27,0.91,0.4,15.15,5.04,1.85
6.2,0.26,0.9,0.38,15.65,3.01,3.3
6.23,0.29,0.89,0.35,18.31,1.19,4.05
6.25,0.29,0.91,0.34,18.41,2.24,4.37
6.27,0.31,0.9,0.32,19.22,1.74,4.29
6.3,0.32,0.91,0.28,17.42,1.16,1.42
6.32,0.32,0.9,0.28,16.53,-0.15,2.08
6.34,0.28,0.88,0.29,14.72,-8.52,0.41
6.37,0.35,0.92,0.28,11.5,2.79,-0.31
6.39,0.32,0.91,0.3,12.72,6.79,-0.24
6.41,0.32,0.92,0.3,15.01,3.1,-0.95
6.44,0.31,0.93,0.28,13.88,6.66,-1.86
6.46,0.29,0.92,0.28,13.69,4.35,-1.71
6.48,0.31,0.91,0.28,15.73,2.93,-0.67
6.51,0.29,0.91,0.26,16.89,-0.35,-3.11
6.53,0.3,0.93,0.22,16.61,0.32,-5.27
6.55,0.31,0.93,0.17,18.18,-1.04,-4.18
6.58,0.31,0.94,0.19,15.57,4.08,-2.63
6.6,0.35,0.96,0.19,12.11,18.72,-1.92
6.62,0.31,0.99,0.17,8.78,7.71,-4.03
6.65,0.29,0.95,0.21,5.74,6.47,-3.47
6.67,0.28,0.94,0.22,6.4,5.25,-3.33
6.69,0.27,0.94,0.24,6.89,5.71,-2.67
6.72,0.29,0.94,0.21,7.79,4.56,-1.82
6.74,0.27,0.95,0.22,6.14,5.82,-1.89
6.76,0.27,0.94,0.21,8.98,5.76,-1.4
6.79,0.27,0.94,0.19,8.26,5.77,-0.37
6.81,0.28,0.94,0.19,8.4,5.68,0.15
6.83,0.28,0.95,0.18,8.72,5.42,0.72
6.86,0.28,0.95,0.16,7.68,4.0,0.92
6.88,0.28,0.95,0.17,6.44,2.23,1.54
6.9,0.28,0.95,0.18,7.24,3.82,2.29
6.93,0.3,0.95,0.18,9.28,1.69,1.71
6.95,0.31,0.96,0.16,8.38,3.13,0.5
6.97,0.29,0.96,0.15,7.13,3.11,-0.5
7.0,0.3,0.95,0.16,5.53,4.58,-2.44
7.02,0.29,0.96,0.18,4.53,5.25,-2.09
7.04,0.3,0.94,0.13,5.22,2.09,-3.39
7.07,0.29,0.96,0.14,4.58,6.35,-4.2
