timestamp,acce_x,acce_y,acce_z,gyro_x,gyro_y,gyro_z
0.001,0.13,-0.04,1.02,1.69,-0.46,2.9
0.002,0.14,-0.03,1.02,2.64,-1.25,3.13
0.004,0.15,-0.04,1.01,2.34,0.98,2.87
0.005,0.13,-0.03,1.02,1.62,2.43,1.8
0.006,0.11,-0.05,1.01,1.53,2.03,1.4
0.008,0.12,-0.06,1.0,2.44,-0.61,-0.27
0.009,0.11,-0.04,0.99,3.86,-1.83,-1.8
0.01,0.12,-0.02,0.99,3.89,-1.33,-0.82
0.011,0.12,-0.03,0.99,2.61,-1.48,0.02
0.012,0.11,-0.04,1.0,1.85,0.06,-1.13
0.014,0.11,-0.04,1.0,1.47,-2.6,-1.56
0.015,0.12,-0.04,0.99,1.36,-4.24,-3.42
0.016,0.12,-0.04,1.0,1.74,-4.06,-1.94
0.017,0.14,-0.04,1.0,1.15,-1.76,0.53
0.018,0.13,-0.05,0.98,1.63,0.02,0.7
0.019,0.11,-0.04,0.97,1.21,1.6,-0.32
0.02,0.12,-0.04,0.98,0.95,3.24,0.24
0.021,0.12,-0.03,0.97,1.16,-0.09,-0.53
0.022,0.12,-0.02,0.96,0.81,0.35,-0.96
0.023,0.11,-0.03,0.97,-0.32,2.43,1.05
0.024,0.12,-0.03,0.99,-2.03,0.95,0.14
0.025,0.13,-0.04,1.0,-2.17,1.01,0.52
0.026,0.13,-0.05,1.0,-1.83,0.03,-0.44
0.027,0.12,-0.05,1.01,-1.54,2.12,-0.17
0.028,0.12,-0.04,1.01,-0.95,2.89,0.21
0.029,0.1,-0.05,1.0,-0.35,1.83,-1.33
0.03,0.1,-0.05,0.99,2.63,4.21,0.66
0.031,0.06,-0.06,0.99,-0.58,4.02,1.36
0.032,0.08,-0.03,0.98,2.35,0.34,4.93
0.033,0.12,-0.03,0.98,2.72,-4.37,5.6
0.033,0.14,-0.04,0.99,-0.37,-4.05,3.44
0.034,0.12,-0.03,0.98,-1.34,1.08,2.9
0.035,0.08,-0.06,0.99,-2.63,4.29,4.09
0.036,0.05,-0.08,0.99,-2.78,4.64,4.95
0.037,0.03,-0.05,0.97,0.47,3.76,7.28
0.038,0.02,-0.06,0.98,0.37,0.29,8.03
0.039,-0.03,-0.1,0.99,-1.4,-0.15,8.41
0.04,-0.09,-0.14,1.04,-5.22,-2.38,7.86
0.041,-0.09,-0.16,1.03,-3.13,-9.56,10.55
0.042,-0.09,-0.18,1.07,-0.96,-9.8,17.86
0.043,-0.17,-0.18,1.04,0.89,-4.17,24.82
0.043,-0.19,-0.18,1.01,0.0,-6.34,26.78
0.044,-0.12,-0.14,1.04,3.54,-15.08,27.13
0.045,-0.09,-0.17,1.08,2.58,-14.17,35.65
0.046,0.0,-0.19,1.1,5.44,-14.4,44.63
0.047,0.05,-0.15,1.06,11.77,-14.06,42.93
0.048,0.02,-0.09,0.99,18.81,-5.08,41.76
0.049,-0.04,-0.05,0.96,18.0,6.63,42.46
0.05,-0.02,-0.05,0.97,12.63,9.54,46.81
0.05,0.07,-0.06,0.99,10.87,5.4,51.66
0.051,0.14,-0.05,0.98,11.48,2.12,52.56
0.052,0.11,-0.01,0.94,10.93,12.06,53.71
0.053,0.01,0.0,0.95,9.98,19.98,54.14
0.054,0.06,-0.04,1.02,4.93,10.61,49.05
0.055,0.17,-0.08,1.05,6.53,2.37,52.58
0.055,0.13,-0.05,1.01,12.18,11.62,54.95
0.056,-0.03,0.01,0.95,12.58,23.37,46.96
0.057,-0.17,0.03,0.92,8.27,23.48,41.59
0.058,-0.23,-0.03,0.98,2.21,14.67,44.55
0.059,-0.03,-0.04,1.03,2.67,-4.61,51.42
0.06,0.08,-0.0,1.01,11.82,-16.38,60.41
0.06,-0.01,0.05,0.99,13.85,-9.69,54.64
0.061,-0.04,0.08,1.02,9.57,-3.77,46.99
0.062,0.06,0.02,1.07,5.45,-8.58,53.04
0.063,0.17,-0.04,1.14,6.52,-14.38,56.69
0.064,0.14,-0.03,1.12,12.23,-5.16,52.35
0.064,0.11,0.02,1.03,17.54,-2.76,46.11
0.065,0.06,0.02,0.95,20.4,-2.27,40.37
0.066,-0.01,0.08,0.91,16.05,3.27,43.8
0.067,0.08,0.08,0.91,7.69,-2.52,54.03
0.067,0.21,0.06,0.91,1.13,-8.5,65.4
0.068,0.28,0.01,0.96,-9.53,-6.6,61.92
0.069,0.33,-0.02,0.97,-14.31,-6.63,50.29
0.07,0.31,-0.06,0.98,-13.91,-0.05,43.48
0.071,0.27,-0.08,1.01,-13.69,11.01,39.13
0.071,0.26,-0.09,1.02,-9.13,14.06,35.33
0.072,0.27,-0.08,1.0,-1.8,16.66,32.44
0.073,0.21,-0.06,0.98,3.07,19.65,26.2
0.074,0.11,-0.08,0.98,2.21,21.39,19.48
0.075,0.07,-0.08,0.96,0.29,20.96,17.1
0.075,0.07,-0.1,0.98,-0.32,20.92,22.15
0.076,0.13,-0.1,1.01,1.27,17.95,28.55
0.077,0.17,-0.07,1.02,3.34,12.64,28.34
0.077,0.16,-0.07,1.04,1.36,11.83,25.36
0.079,0.01,-0.11,0.97,6.34,6.46,-8.49
0.079,0.01,-0.1,0.98,3.13,8.43,-8.73
0.09,-0.01,-0.12,0.99,1.88,6.61,-9.47
0.108,-0.03,-0.13,1.01,3.1,5.59,-8.67
0.127,-0.05,-0.13,1.02,4.64,4.49,-6.63
0.145,-0.04,-0.13,1.0,5.63,4.03,-4.5
0.169,-0.04,-0.12,0.99,5.92,4.38,-1.92
0.187,-0.03,-0.09,0.98,4.99,4.47,0.6
0.206,-0.03,-0.09,0.98,4.21,4.05,1.97
0.229,-0.03,-0.1,0.96,4.92,0.38,1.89
0.248,-0.02,-0.08,0.96,3.57,2.2,4.05
0.266,-0.03,-0.06,0.96,2.37,1.24,2.78
0.29,-0.03,-0.07,0.95,-0.11,0.31,2.61
0.308,-0.02,-0.1,0.97,-1.5,-0.6,3.4
0.327,-0.0,-0.1,0.99,0.15,2.32,1.48
0.35,-0.02,-0.07,0.98,1.24,0.52,-0.95
0.368,-0.02,-0.1,0.97,-1.89,2.15,0.32
0.387,-0.02,-0.13,0.99,-1.66,1.25,-0.63
0.405,-0.02,-0.14,1.01,1.44,0.61,-1.05
0.429,-0.01,-0.11,0.99,2.73,0.82,-0.4
0.447,0.0,-0.1,1.0,2.15,1.1,-0.58
0.465,0.01,-0.11,1.0,1.91,-0.2,-3.56
0.489,0.01,-0.11,1.01,1.07,0.72,-5.04
0.508,-0.01,-0.12,1.02,2.21,2.76,-3.21
0.526,-0.02,-0.09,1.0,3.1,3.68,-1.62
0.55,-0.03,-0.07,0.99,3.82,0.67,-3.01
0.568,-0.04,-0.09,0.99,4.58,0.93,-0.63
0.586,-0.03,-0.15,1.0,5.3,2.0,1.62
0.61,-0.05,-0.11,1.0,4.98,-0.09,0.55
0.628,-0.06,-0.09,1.01,5.34,-2.41,-0.06
0.646,-0.04,-0.09,1.0,2.63,-3.34,-0.18
0.67,0.01,-0.12,1.02,2.55,-3.15,-0.66
0.688,0.01,-0.12,1.05,5.22,-0.21,-6.35
0.707,-0.03,-0.09,1.02,6.02,-0.93,-4.79
0.725,0.02,-0.09,1.02,5.24,-2.0,-4.96
0.749,0.02,-0.07,1.01,2.9,-0.17,-6.67
0.767,-0.01,-0.06,0.99,1.85,0.76,-4.73
0.786,-0.02,-0.1,1.04,0.38,0.96,-5.66
0.809,-0.01,-0.11,0.97,4.37,-3.4,-4.87
0.827,-0.01,-0.09,0.98,1.77,-2.21,-3.57
0.846,-0.07,-0.06,0.97,-0.9,-6.78,-3.47
0.869,0.03,-0.06,0.99,-0.37,-4.53,-0.58
0.888,0.03,-0.11,0.95,2.87,-2.52,-1.21
0.906,-0.01,-0.07,0.99,1.15,-10.7,-4.69
0.929,-0.02,-0.08,0.96,-1.21,-10.98,-1.68
0.947,-0.0,-0.1,0.99,-2.63,-7.92,-0.37
0.966,0.01,-0.1,1.01,-2.08,-6.66,-2.29
0.989,0.03,-0.12,1.04,2.2,-7.66,-3.97
1.008,0.03,-0.1,1.01,1.15,-6.73,-1.48
1.026,0.04,-0.12,1.02,2.06,-5.28,-2.02
1.049,0.05,-0.11,1.03,1.83,-3.53,-4.14
1.068,0.05,-0.12,1.02,3.63,-1.34,-3.27
1.086,0.04,-0.11,1.02,4.31,-2.58,-5.08
1.11,0.05,-0.1,1.01,5.37,-1.18,-5.77
1.128,0.06,-0.09,0.99,4.52,-1.15,-6.02
1.146,0.06,-0.09,0.99,3.95,-1.07,-7.33
1.17,0.04,-0.1,0.99,4.95,-2.35,-9.16
1.188,0.06,-0.08,0.98,4.44,-1.94,-8.29
1.207,0.05,-0.08,0.98,2.17,-0.9,-8.09
1.225,0.06,-0.09,0.98,1.34,-2.76,-9.25
1.249,0.07,-0.09,0.99,1.73,-1.86,-9.47
1.267,0.06,-0.08,1.01,2.14,-3.36,-12.93
1.285,0.03,-0.11,1.01,4.43,-4.82,-14.23
1.309,0.04,-0.12,1.02,7.4,-3.76,-11.22
1.327,0.04,-0.12,1.01,8.29,-2.29,-10.85
1.346,0.02,-0.09,0.98,8.78,-1.8,-8.26
1.369,0.05,-0.07,0.97,7.11,-2.4,-8.18
1.388,0.05,-0.07,0.97,4.61,-2.7,-7.97
1.406,0.06,-0.08,1.0,2.93,-2.84,-8.55
1.429,0.05,-0.08,0.99,3.15,-2.72,-9.1
1.448,0.07,-0.09,0.99,3.54,-3.42,-7.97
1.466,0.07,-0.09,0.99,4.18,-4.12,-7.47
1.49,0.09,-0.1,1.0,4.2,-5.45,-7.62
1.508,0.1,-0.09,0.99,3.28,-3.53,-8.92
1.526,0.09,-0.08,1.0,3.34,-1.22,-9.73
1.55,0.09,-0.1,1.0,3.15,-2.0,-12.24
1.568,0.08,-0.07,1.0,1.82,-2.89,-12.81
1.587,0.08,-0.08,1.0,2.02,-2.18,-14.67
1.61,0.07,-0.09,1.0,3.1,-1.53,-16.38
1.628,0.06,-0.09,0.98,4.24,0.18,-15.37
1.647,0.06,-0.1,1.0,5.45,1.6,-16.61
1.665,0.05,-0.08,0.99,6.64,1.65,-16.11
1.689,0.05,-0.08,0.99,6.75,0.84,-13.57
1.707,0.07,-0.07,0.98,6.32,-0.73,-15.36
1.725,0.1,-0.08,1.0,5.53,-2.85,-17.92
1.749,0.12,-0.05,1.01,4.44,-0.63,-17.53
1.767,0.14,-0.06,1.01,3.95,-0.03,-20.29
1.786,0.12,-0.08,1.02,4.53,1.63,-22.38
1.809,0.1,-0.07,1.03,5.59,2.03,-22.0
1.828,0.1,-0.07,1.04,6.5,4.21,-22.4
1.846,0.04,-0.06,1.02,6.84,2.82,-25.8
1.869,0.04,-0.08,1.01,6.72,2.03,-24.38
1.888,0.05,-0.07,1.02,6.21,4.41,-21.24
1.906,0.01,-0.05,1.02,7.39,3.95,-21.57
1.93,0.01,-0.03,1.0,7.86,4.09,-18.53
1.948,-0.02,-0.05,1.0,8.95,0.34,-17.01
1.966,-0.01,-0.05,1.0,10.0,-2.92,-14.85
1.989,-0.0,-0.03,0.99,10.23,-3.59,-9.79
2.008,0.03,-0.01,0.98,9.19,-7.24,-7.73
2.026,0.05,-0.01,0.97,7.73,-7.18,-10.44
2.05,0.04,0.02,0.95,5.21,-8.38,-10.85
2.068,0.06,-0.01,0.98,3.54,-10.69,-12.46
2.086,0.07,-0.02,0.97,4.02,-8.85,-10.85
2.11,0.07,-0.0,0.97,3.57,-10.34,-9.18
2.128,0.11,-0.01,0.99,1.66,-13.98,-14.67
2.146,0.09,-0.03,0.98,0.98,-12.99,-16.27
2.17,0.06,-0.04,0.97,2.08,-14.24,-16.12
2.188,0.06,-0.04,0.99,4.37,-19.36,-17.54
2.206,0.1,-0.02,0.99,4.75,-18.14,-17.3
2.229,0.12,-0.01,0.97,3.1,-13.45,-14.73
2.248,0.15,-0.02,0.99,2.84,-11.21,-16.21
2.266,0.15,-0.05,1.02,2.53,-10.82,-19.6
2.29,0.17,-0.06,1.03,4.92,-8.92,-20.38
2.308,0.2,-0.05,1.04,7.37,-1.18,-24.43
2.326,0.11,-0.02,1.03,6.23,1.97,-27.73
2.35,0.11,-0.05,1.04,6.29,1.88,-26.43
2.368,0.11,-0.05,1.04,10.31,2.09,-24.85
2.386,0.06,-0.02,1.02,13.48,-0.69,-24.52
2.41,0.1,0.01,0.99,10.23,0.0,-21.54
2.428,0.11,0.01,0.99,8.69,0.56,-22.67
2.447,0.07,0.01,0.97,5.92,-1.8,-23.39
2.47,0.06,0.02,0.95,6.75,-2.82,-17.27
2.489,0.04,0.05,0.96,3.92,-5.19,-9.04
2.507,0.02,0.04,0.96,2.26,-21.74,-9.45
2.525,0.08,0.03,0.98,4.43,-32.06,-7.48
2.549,0.12,0.03,0.99,0.95,-28.96,-1.56
2.567,0.22,0.02,0.98,0.75,-21.91,-6.96
2.586,0.22,0.02,0.98,-4.15,-12.09,-22.79
2.609,0.15,0.03,1.0,-7.98,-5.62,-23.1
2.627,0.1,0.01,1.02,-7.69,-7.04,-17.82
2.645,0.11,-0.02,1.02,-3.98,-12.46,-15.18
2.669,0.13,-0.0,1.0,-3.07,-9.73,-9.83
2.687,0.13,0.01,0.99,-3.15,-7.16,-4.52
2.706,0.11,0.01,0.99,-4.24,-13.21,-8.84
2.729,0.12,0.02,0.99,-4.4,-14.21,-4.92
2.747,0.17,-0.02,1.0,-4.2,-8.24,-3.69
2.765,0.13,-0.03,1.02,-5.42,-5.5,-5.1
2.789,0.11,-0.03,1.03,-1.39,-6.49,-0.96
2.808,0.13,-0.03,1.02,-1.13,-6.35,1.27
2.826,0.14,-0.04,1.0,-0.49,-6.69,1.79
2.849,0.16,-0.04,1.0,1.77,-5.69,-1.53
2.868,0.17,-0.04,1.0,0.06,-7.76,-10.08
2.886,0.17,-0.04,1.01,-2.43,-8.52,-16.2
2.909,0.17,-0.05,1.0,-1.15,-0.98,-12.52
2.928,0.14,-0.05,1.01,1.5,1.62,-7.63
2.946,0.15,-0.06,1.02,4.55,-3.45,-9.33
2.97,0.17,-0.05,1.02,7.13,-3.51,-13.76
2.988,0.16,-0.01,0.99,6.78,0.24,-10.12
3.007,0.18,-0.01,0.99,5.16,2.85,-9.27
3.03,0.17,-0.01,0.99,4.49,5.73,-9.59
3.046,0.14,0.0,0.98,4.21,2.41,-9.69
3.067,0.16,0.01,0.99,3.68,0.44,-7.83
3.087,0.19,0.01,0.99,3.65,1.73,-4.0
3.106,0.2,0.0,0.99,3.42,2.5,-4.66
3.126,0.22,0.01,0.98,2.44,5.74,-4.4
3.15,0.21,0.02,0.97,-0.96,8.05,-2.23
3.169,0.19,-0.0,0.98,-3.62,8.08,-4.2
3.187,0.16,-0.02,1.0,-3.63,9.25,-1.62
3.205,0.15,-0.04,0.98,-2.47,12.56,2.0
3.229,0.13,-0.02,0.97,-2.72,13.02,5.33
3.247,0.13,-0.01,0.96,-3.69,12.93,8.92
3.266,0.16,-0.03,0.97,-4.99,12.02,3.37
3.289,0.17,-0.03,0.99,-5.04,12.35,-5.16
3.307,0.15,-0.04,1.0,-2.64,13.01,-8.73
3.326,0.12,-0.03,1.01,-1.28,10.53,-8.21
3.349,0.14,-0.01,0.99,-2.15,10.14,-8.24
3.367,0.13,-0.03,1.0,-5.22,11.45,-11.07
3.385,0.09,-0.05,1.0,-5.89,9.89,-11.45
3.409,0.09,-0.06,1.02,-3.85,9.04,-9.1
3.428,0.09,-0.05,1.02,-2.2,9.85,-7.44
3.446,0.07,-0.04,1.0,-1.85,7.01,-8.5
3.469,0.05,-0.02,0.99,-2.73,1.05,-9.48
3.488,0.06,-0.03,1.02,-4.92,-2.0,-9.16
3.506,0.09,-0.05,1.04,-4.23,-1.86,-6.29
3.53,0.11,-0.06,1.06,-1.24,-2.02,-4.46
3.548,0.14,-0.04,1.03,1.15,-1.1,-5.39
3.567,0.11,-0.03,1.02,0.61,0.78,-5.39
3.59,0.09,-0.05,1.02,0.96,-2.7,-6.37
3.609,0.12,-0.04,1.03,1.44,-4.84,-7.15
3.627,0.13,-0.04,1.04,3.21,-1.59,-5.15
3.645,0.12,-0.03,1.02,4.06,-0.15,-3.6
3.669,0.15,-0.04,1.02,5.28,-1.1,-5.37
3.687,0.15,-0.02,1.03,5.01,2.49,-4.84
3.706,0.12,-0.01,1.02,4.53,2.41,-4.4
3.729,0.11,-0.02,1.01,3.91,0.14,-4.92
3.748,0.12,-0.02,1.01,3.59,0.87,-3.66
3.766,0.12,-0.03,1.01,4.75,0.26,-2.98
3.79,0.13,-0.03,1.01,5.5,-1.18,-3.05
3.808,0.15,-0.02,1.0,5.85,-0.12,-4.05
3.826,0.13,-0.01,0.99,4.82,2.11,-4.09
3.845,0.14,-0.02,1.0,4.55,0.34,-5.02
3.869,0.13,-0.01,0.99,4.31,2.69,-4.38
3.887,0.12,-0.01,0.98,3.3,3.01,-4.12
3.906,0.11,-0.03,0.99,3.4,-0.15,-4.18
3.929,0.12,-0.0,0.98,4.14,0.78,-2.79
3.948,0.14,-0.0,0.97,1.54,0.96,-3.42
3.966,0.13,-0.02,0.99,1.53,-0.5,-4.55
3.99,0.11,0.0,0.98,1.25,-1.45,-3.19
