timestamp,acce_x,acce_y,acce_z,gyro_x,gyro_y,gyro_z
0.001,0.18,0.02,1.0,2.6,-3.76,-4.64
0.003,0.18,0.03,0.99,5.25,-3.15,-1.94
0.004,0.16,0.03,0.99,4.09,0.15,-2.14
0.005,0.13,0.03,0.97,2.96,2.05,-2.78
0.007,0.13,0.03,0.99,1.21,1.56,-2.32
0.008,0.15,0.02,0.99,0.78,-1.4,-1.51
0.009,0.18,0.02,0.98,1.71,-3.48,1.25
0.01,0.18,0.03,0.99,3.04,-3.73,1.68
0.011,0.17,0.02,0.99,1.6,-0.99,-0.55
0.012,0.18,0.0,1.0,0.7,1.21,1.65
0.014,0.2,0.02,1.0,1.53,0.27,1.25
0.015,0.21,0.02,1.0,3.07,-1.6,0.21
0.016,0.21,0.03,0.98,2.93,-2.12,-1.54
0.017,0.2,0.04,0.97,2.55,-0.34,-1.77
0.018,0.18,0.02,0.97,0.92,3.28,-1.82
0.019,0.16,0.03,0.98,-0.43,2.32,-2.81
0.02,0.15,0.01,0.99,-0.73,0.67,-3.25
0.021,0.15,0.01,1.01,-1.4,-0.49,-2.58
0.022,0.16,0.03,0.99,-0.2,-1.88,0.09
0.023,0.18,0.02,1.0,-0.18,-0.66,1.39
0.025,0.18,0.02,1.0,-0.95,-1.79,-0.92
0.026,0.18,0.01,1.0,-0.23,0.85,-0.02
0.027,0.17,-0.0,1.01,-1.04,1.74,0.03
0.028,0.18,0.02,1.01,0.37,1.59,-0.03
0.029,0.18,0.02,0.99,2.29,0.69,-0.12
0.03,0.16,0.02,1.0,2.38,1.44,-0.14
0.031,0.17,0.03,0.99,2.49,-0.09,-0.7
0.031,0.2,0.01,1.0,1.65,-0.09,0.09
0.032,0.19,0.02,0.99,1.51,0.35,0.09
0.033,0.16,0.03,0.98,1.74,2.93,-1.48
0.034,0.15,0.02,0.98,1.22,2.67,-1.15
0.035,0.14,0.02,0.98,1.18,-1.47,-3.27
0.036,0.15,0.01,0.98,0.43,0.14,-0.78
0.037,0.16,0.01,0.98,0.32,-1.89,-0.03
0.038,0.15,0.0,0.98,-0.17,-0.08,-0.06
0.039,0.17,0.01,0.97,0.72,-1.51,0.98
0.04,0.15,0.03,0.97,-0.6,-0.72,0.21
0.04,0.15,0.01,0.96,-2.21,2.89,2.32
0.041,0.15,0.03,0.96,-1.4,0.15,2.08
0.042,0.17,0.02,0.97,-3.97,-1.04,1.45
0.043,0.17,-0.01,1.0,-6.53,-0.87,2.81
0.044,0.17,-0.02,1.02,-7.11,-3.5,0.9
0.045,0.14,-0.02,1.02,-4.18,-1.19,1.86
0.046,0.12,0.04,0.96,-2.67,0.43,4.87
0.046,0.11,-0.05,1.05,0.99,-5.77,2.96
0.047,0.12,-0.03,1.05,-0.47,-3.83,6.61
0.048,0.14,-0.03,1.05,1.92,-5.34,10.15
0.049,0.17,-0.03,1.06,3.91,-5.42,12.12
0.05,0.19,-0.01,1.04,5.86,-3.62,10.11
0.051,0.13,-0.01,1.03,5.98,1.95,7.07
0.051,0.07,-0.02,1.02,4.58,7.05,5.92
0.052,0.01,-0.05,1.03,3.66,9.19,7.73
0.053,-0.05,-0.05,1.0,4.41,9.73,11.51
0.054,-0.09,-0.05,1.02,5.4,4.67,12.93
0.055,-0.12,-0.07,1.03,5.25,-1.94,12.67
0.055,-0.16,-0.12,1.06,0.55,-0.55,7.79
0.056,-0.26,-0.15,1.11,2.09,7.02,5.47
0.057,-0.3,-0.11,1.1,7.21,8.75,10.89
0.058,-0.24,-0.07,1.1,14.11,1.15,22.66
0.059,-0.05,-0.07,1.11,18.96,-14.43,37.89
0.059,0.05,-0.05,1.11,22.43,-13.42,45.33
0.06,0.1,-0.04,1.08,26.41,-7.74,43.77
0.061,0.07,0.02,1.03,31.22,4.02,46.14
0.062,0.05,0.04,1.0,32.75,11.8,50.69
0.062,0.05,0.05,1.04,26.61,9.15,50.27
0.063,0.13,0.06,0.99,33.3,4.78,48.75
0.064,0.14,0.09,0.94,22.32,11.33,52.17
0.065,0.13,0.09,0.92,20.73,17.98,55.11
0.065,0.12,0.1,0.9,15.51,18.46,54.15
0.066,0.13,0.1,0.9,6.93,19.74,48.69
0.067,0.1,0.09,0.89,3.88,19.45,47.73
0.068,0.06,0.03,0.93,-8.02,19.82,46.82
0.068,0.1,0.03,0.96,-3.76,17.85,51.37
0.069,0.11,0.0,1.01,-4.46,12.96,56.99
0.07,0.2,-0.01,1.08,-4.55,3.74,55.11
0.071,0.25,-0.02,1.06,4.4,-1.97,52.96
0.071,0.25,-0.0,1.04,6.12,4.75,47.74
0.072,0.2,0.04,1.02,9.15,10.75,44.79
0.073,0.21,0.02,1.04,6.53,10.4,43.28
0.074,0.25,-0.0,1.03,6.24,7.74,43.39
0.074,0.25,0.05,0.98,11.73,10.53,40.6
0.075,0.19,0.11,0.91,16.63,16.41,37.63
0.076,0.14,0.16,0.86,14.31,20.24,35.53
0.077,0.1,0.15,0.87,5.62,19.27,31.1
0.078,0.06,-0.04,0.99,0.69,2.58,-2.67
0.079,0.08,-0.08,1.01,-1.31,1.36,-2.38
0.086,0.07,-0.07,1.01,-1.27,2.92,-3.34
0.104,0.1,-0.06,1.0,0.9,1.28,-3.98
0.122,0.07,-0.06,1.01,0.49,4.23,-2.29
0.146,0.06,-0.07,1.0,-0.17,3.71,-3.5
0.164,0.06,-0.08,0.99,-0.73,1.62,-3.44
0.183,0.05,-0.07,0.99,0.92,3.65,-0.72
0.206,0.07,-0.06,0.99,2.31,2.29,-0.06
0.225,0.06,-0.05,0.98,2.66,3.69,-1.27
0.243,0.06,-0.05,0.99,2.2,3.44,-3.13
0.262,0.06,-0.08,1.01,0.53,3.86,-3.8
0.285,0.05,-0.09,1.04,-0.05,3.42,-5.94
0.304,0.05,-0.07,1.03,2.56,4.61,-4.35
0.322,0.06,-0.08,1.0,2.46,4.66,-2.46
0.346,0.07,-0.05,1.0,5.62,2.96,-4.76
0.364,0.08,-0.04,0.99,4.02,2.6,-5.94
0.383,0.07,-0.04,0.98,2.03,4.17,-5.62
0.406,0.05,-0.05,0.99,-0.79,1.21,-8.95
0.425,0.04,-0.05,0.98,-1.24,-0.43,-9.54
0.443,0.04,-0.06,0.98,-1.37,-0.31,-6.75
0.466,0.04,-0.04,0.99,-2.47,-1.4,-6.99
0.485,0.03,-0.07,1.0,-4.49,-3.13,-6.84
0.503,0.04,-0.08,1.01,-4.4,-3.63,-5.27
0.527,0.06,-0.07,1.02,-1.92,-3.54,-4.12
0.545,0.03,-0.07,1.02,-0.35,-1.92,-4.32
0.563,0.02,-0.09,1.02,-0.18,-0.9,-5.4
0.587,0.03,-0.09,1.01,1.63,-2.14,-4.72
0.605,0.05,-0.09,1.01,3.33,0.92,-0.14
0.624,0.05,-0.08,1.01,3.74,0.38,-1.69
0.642,0.05,-0.07,0.99,3.95,-0.27,-2.78
0.666,0.05,-0.06,0.99,3.6,2.05,-1.1
0.684,0.05,-0.06,0.97,3.79,1.18,-2.76
0.702,0.06,-0.06,0.96,2.95,2.14,-1.37
0.726,0.06,-0.06,0.97,1.65,2.43,-1.15
0.745,0.05,-0.05,0.97,0.61,2.34,-1.71
0.763,0.05,-0.06,0.99,-0.56,3.57,-0.75
0.787,0.05,-0.07,0.99,-1.45,1.18,-3.4
0.805,0.03,-0.08,1.01,-2.67,2.58,-3.22
0.823,0.03,-0.08,1.01,-1.24,1.36,-2.69
0.842,0.03,-0.07,1.0,0.18,1.04,-2.27
0.863,0.06,-0.08,1.02,0.03,1.13,0.24
0.887,0.04,-0.09,1.02,0.64,1.65,-0.61
0.905,0.03,-0.08,1.03,1.54,2.56,-1.16
0.924,0.04,-0.08,1.02,2.79,-0.12,-1.44
0.942,0.05,-0.07,1.0,3.63,1.07,-0.34
0.963,0.06,-0.07,0.98,4.2,0.27,0.35
0.987,0.06,-0.06,0.97,3.11,-0.76,-0.31
1.003,0.06,-0.06,0.97,1.04,1.92,1.42
1.027,0.07,-0.07,0.99,-0.35,1.98,1.28
1.045,0.05,-0.08,0.99,-1.11,0.67,-1.5
1.063,0.05,-0.08,1.0,-0.46,-0.08,-3.94
1.082,0.05,-0.09,1.01,-0.55,1.1,-3.34
1.105,0.03,-0.08,1.01,0.64,3.95,-2.9
1.124,0.03,-0.07,1.02,1.21,4.09,-4.79
1.143,0.03,-0.08,1.03,0.99,3.45,-4.53
1.166,0.04,-0.09,1.04,1.54,3.08,-2.21
1.184,0.06,-0.07,1.02,3.74,0.69,-3.18
1.203,0.06,-0.06,1.01,4.23,0.96,-3.5
1.227,0.06,-0.07,1.01,3.6,2.4,-3.04
1.245,0.05,-0.07,1.0,3.07,1.11,-3.59
1.263,0.06,-0.06,1.0,3.18,-0.09,-4.05
1.282,0.05,-0.07,1.01,3.77,-0.75,-4.55
1.305,0.05,-0.07,1.01,3.79,-1.39,-4.81
1.324,0.08,-0.06,1.01,3.89,-1.11,-2.43
1.342,0.07,-0.06,1.01,3.33,-2.38,-3.88
1.366,0.07,-0.06,1.01,3.05,-1.4,-5.11
1.384,0.07,-0.08,1.04,2.89,-1.94,-4.84
1.403,0.08,-0.08,1.03,4.03,-2.6,-5.21
1.426,0.09,-0.07,1.03,5.94,-3.6,-5.5
1.445,0.08,-0.07,1.03,7.15,-2.7,-4.79
1.463,0.09,-0.06,1.01,7.51,-2.76,-6.41
1.486,0.08,-0.06,1.01,7.42,-2.5,-6.34
1.505,0.07,-0.06,0.99,7.11,-0.9,-7.01
1.523,0.05,-0.03,0.97,7.79,-0.41,-7.44
1.547,0.05,-0.05,0.98,6.12,1.47,-5.85
1.565,0.04,-0.05,0.99,4.64,-0.44,-5.54
1.583,0.03,-0.04,0.98,4.4,-2.05,-5.98
1.602,0.05,-0.05,1.0,0.82,-4.63,-5.22
1.625,0.07,-0.04,0.98,3.07,-5.97,-4.89
1.644,0.08,-0.06,1.0,1.77,-6.73,-3.51
1.662,0.09,-0.06,1.02,1.51,-9.01,-5.18
1.686,0.11,-0.04,1.0,2.23,-10.84,-5.88
1.704,0.13,-0.07,1.0,0.53,-10.82,-6.56
1.722,0.12,-0.03,1.0,2.82,-8.85,-6.75
1.746,0.14,-0.02,0.98,2.76,-8.4,-8.14
1.764,0.14,-0.04,0.99,0.98,-8.47,-10.14
1.783,0.11,-0.05,1.01,-1.31,-6.35,-11.62
1.806,0.15,-0.06,1.01,0.12,-8.2,-14.06
1.824,0.15,-0.05,1.0,2.55,-6.95,-13.25
1.843,0.15,-0.04,1.02,3.3,-4.81,-14.46
1.866,0.14,-0.04,1.01,4.43,-5.47,-18.64
1.884,0.11,-0.07,1.01,3.48,-2.41,-18.95
1.903,0.11,-0.08,1.0,3.56,-4.87,-17.79
1.926,0.12,-0.04,0.99,6.49,-3.69,-19.22
1.944,0.13,-0.03,0.98,6.72,-2.31,-17.15
1.963,0.1,-0.03,0.97,5.01,-1.57,-18.15
1.986,0.09,-0.06,0.99,2.73,-1.53,-19.37
2.004,0.11,-0.05,0.99,1.44,-3.21,-17.28
2.023,0.11,-0.03,0.98,3.04,-3.1,-15.1
2.046,0.12,-0.03,0.99,2.69,-5.15,-15.89
2.065,0.13,-0.04,1.01,0.44,-7.5,-18.34
2.083,0.14,-0.05,1.02,-5.04,-5.47,-18.78
2.106,0.12,-0.05,1.03,-2.47,-3.21,-16.4
2.124,0.13,-0.03,1.01,3.36,-5.57,-19.39
2.143,0.14,-0.02,0.99,4.82,-6.82,-19.69
2.166,0.12,-0.05,1.0,2.31,-1.79,-18.14
2.185,0.11,-0.05,0.99,1.4,-1.59,-18.38
2.203,0.13,-0.04,1.0,3.16,-1.68,-18.63
2.226,0.1,-0.05,1.01,4.52,-2.23,-18.15
2.245,0.14,-0.02,0.99,1.53,-2.72,-18.85
2.263,0.16,-0.02,0.96,3.85,1.65,-15.56
2.287,0.16,-0.04,0.97,0.15,1.33,-17.13
2.305,0.13,-0.03,0.98,3.36,1.53,-19.37
2.323,0.13,-0.03,0.97,3.34,0.61,-19.34
2.342,0.12,-0.04,0.97,5.15,2.05,-17.54
2.365,0.1,-0.06,0.99,2.27,1.89,-16.58
2.384,0.12,-0.02,1.0,1.04,0.53,-15.47
2.402,0.16,-0.02,0.98,6.46,-2.66,-16.49
2.425,0.17,-0.01,0.98,6.21,-0.08,-17.05
2.444,0.14,-0.02,1.0,3.22,2.03,-17.65
2.462,0.14,-0.04,1.01,0.27,2.31,-18.76
2.486,0.12,-0.05,1.0,0.08,2.2,-19.07
2.504,0.1,-0.04,0.97,2.99,2.32,-18.14
2.522,0.1,-0.02,0.97,1.83,3.08,-17.95
2.546,0.11,-0.01,0.98,-0.2,0.92,-17.95
2.564,0.12,-0.04,1.0,-5.01,-2.66,-21.91
2.583,0.14,-0.04,0.99,-4.17,-4.03,-20.85
2.606,0.14,-0.02,0.99,0.15,-1.76,-18.99
2.624,0.12,0.01,0.98,2.46,-1.71,-21.07
2.643,0.12,0.02,0.97,0.56,-4.6,-25.65
2.666,0.1,0.0,1.01,-2.98,-1.42,-24.34
2.685,0.14,-0.02,1.03,-5.19,0.4,-22.03
2.703,0.17,-0.0,1.0,-2.87,1.24,-19.36
2.726,0.15,0.03,0.99,0.78,3.04,-18.41
2.745,0.13,0.02,0.98,-0.52,2.76,-22.06
2.763,0.13,-0.02,1.01,-6.21,2.73,-22.96
2.787,0.1,-0.06,1.03,-11.27,6.81,-21.25
2.805,0.07,-0.07,1.04,-8.84,10.03,-19.3
2.823,0.1,-0.04,1.01,-2.17,2.85,-19.69
2.847,0.13,0.0,0.97,4.44,-5.39,-19.28
2.865,0.13,-0.0,0.98,1.25,-6.58,-19.13
2.883,0.1,-0.02,0.99,-7.91,0.96,-17.24
2.907,0.1,-0.03,1.02,-8.06,7.86,-10.08
2.925,0.13,-0.05,1.01,-4.99,6.67,-6.08
2.943,0.1,-0.05,1.01,-1.05,-0.63,-17.8
2.967,0.07,-0.05,1.02,-3.56,-4.72,-26.82
2.985,0.06,-0.07,1.04,-5.27,-0.35,-19.68
3.003,0.03,-0.09,1.05,-4.21,5.69,-9.27
3.023,0.03,-0.06,1.04,2.32,5.76,1.95
3.047,0.06,-0.05,1.01,7.8,-2.31,4.76
3.065,0.08,-0.07,1.01,11.25,-10.35,2.99
3.083,0.14,-0.08,1.04,12.23,-15.73,-2.69
3.107,0.17,-0.04,1.01,18.78,-9.74,-1.95
3.125,0.13,0.01,0.98,20.08,4.98,-7.27
3.143,0.08,0.01,0.96,15.65,15.88,-10.89
3.162,0.03,-0.03,0.99,10.58,18.89,-12.52
3.185,0.0,-0.1,1.05,12.82,13.22,-10.92
3.203,-0.06,-0.11,1.06,23.07,6.64,-8.18
3.222,-0.0,-0.01,1.0,26.44,-0.63,-9.1
3.245,0.02,0.01,0.96,30.08,-3.45,-11.28
3.263,0.05,0.05,0.97,26.56,-3.42,-8.06
3.282,0.08,0.04,0.98,19.57,-1.07,-3.37
3.305,0.05,0.01,1.0,14.98,-2.46,-5.88
3.324,0.04,0.01,1.02,10.49,-6.26,-12.12
3.342,0.03,0.03,1.0,10.93,-7.44,-15.94
3.366,0.09,0.07,0.82,6.55,-9.5,-15.98
3.384,0.09,0.02,0.97,-5.57,-1.34,-13.74
3.402,0.02,0.06,0.94,2.21,-5.01,-13.42
3.426,-0.03,0.03,0.99,-2.95,-2.53,-13.65
3.444,0.0,-0.04,1.01,-9.59,-8.21,-12.03
3.462,0.09,-0.07,1.05,-8.9,-19.65,-7.24
3.486,0.16,-0.05,1.02,-3.57,-22.47,-6.87
3.504,0.13,0.03,0.97,3.19,-11.54,-8.49
3.522,0.06,0.01,0.97,0.02,-0.06,-12.32
3.546,0.01,-0.03,1.01,-7.42,4.27,-14.37
3.564,0.03,-0.05,1.05,-8.31,3.1,-10.52
3.582,0.06,-0.03,1.04,-3.08,-0.23,-5.65
3.606,0.09,0.02,1.0,4.64,-3.25,-3.45
3.624,0.11,0.04,0.98,6.23,-4.75,-3.68
3.643,0.1,0.04,1.0,2.12,-2.79,-6.09
3.666,0.09,0.02,1.0,-1.13,-0.15,-5.65
3.685,0.1,0.02,0.99,-1.51,2.55,-2.89
3.704,0.11,0.03,0.98,-0.47,3.4,-1.6
3.723,0.12,0.04,0.98,0.69,0.17,-2.73
3.747,0.1,0.04,0.96,-1.34,-2.14,-5.54
3.765,0.08,0.0,0.99,-4.24,1.11,-4.31
3.783,0.08,-0.01,1.0,-4.46,3.18,0.18
3.803,0.09,0.02,0.98,0.35,2.41,4.72
3.823,0.17,0.02,0.99,2.7,-4.15,7.42
3.843,0.17,0.01,0.99,2.2,-7.11,1.11
3.867,0.14,0.01,1.0,-0.17,-3.89,-2.84
3.885,0.11,0.0,1.01,-0.58,3.18,-0.5
3.904,0.08,0.01,1.03,-2.12,5.44,-0.85
3.923,0.1,0.02,1.02,-0.26,3.11,0.5
3.942,0.12,0.04,1.01,1.62,1.11,0.76
3.965,0.13,0.03,1.02,-0.09,0.0,-0.7
3.984,0.13,0.03,1.02,-1.89,-0.46,-1.94
