timestamp,acce_x,acce_y,acce_z,gyro_x,gyro_y,gyro_z
0.001,-0.23,-0.1,0.98,0.09,6.34,8.79
0.003,-0.26,-0.13,0.99,0.67,4.21,7.66
0.004,-0.21,-0.12,1.0,1.21,-0.09,7.01
0.005,-0.19,-0.11,0.99,2.85,1.69,9.69
0.006,-0.17,-0.07,0.98,4.08,5.34,8.26
0.007,-0.16,-0.07,0.97,5.56,4.99,6.79
0.008,-0.21,-0.09,0.95,5.51,7.56,3.05
0.01,-0.26,-0.08,0.92,5.1,8.92,-0.56
0.011,-0.3,-0.08,0.92,4.76,5.91,-0.38
0.012,-0.3,-0.1,0.92,1.63,6.92,1.53
0.013,-0.27,-0.1,0.91,1.71,3.53,2.29
0.014,-0.26,-0.1,0.94,-0.29,1.19,3.76
0.015,-0.26,-0.11,0.94,-1.8,2.47,2.53
0.016,-0.28,-0.12,0.94,0.09,1.27,3.51
0.017,-0.27,-0.13,0.94,-0.73,2.6,3.24
0.018,-0.28,-0.14,0.94,-0.26,2.09,4.7
0.019,-0.3,-0.11,0.91,1.33,2.09,6.03
0.02,-0.27,-0.11,0.93,1.19,-1.27,6.79
0.022,-0.24,-0.11,0.95,-1.31,-3.62,7.89
0.023,-0.21,-0.09,1.02,-2.79,-0.49,7.86
0.024,-0.18,-0.1,1.09,-5.19,0.44,7.94
0.025,-0.31,-0.06,1.06,-0.6,5.82,4.41
0.026,-0.33,-0.04,0.92,9.02,1.57,4.84
0.027,-0.36,-0.04,0.88,8.69,-6.85,5.24
0.028,-0.3,-0.09,0.96,-3.34,-19.92,5.1
0.029,-0.21,-0.13,1.06,-11.44,-27.33,9.01
0.029,-0.19,-0.18,1.09,-10.17,-22.7,7.51
0.03,-0.18,-0.2,1.06,-0.76,-22.58,6.99
0.031,-0.16,-0.17,0.99,8.99,-18.18,5.79
0.032,-0.14,-0.14,0.95,14.09,-7.54,8.27
0.033,-0.17,-0.13,0.92,14.4,0.81,7.59
0.034,-0.19,-0.1,0.88,17.73,2.53,4.14
0.035,-0.21,-0.07,0.88,17.44,6.82,4.95
0.036,-0.24,-0.04,0.88,13.68,15.33,4.93
0.036,-0.21,-0.03,0.88,10.82,12.49,4.73
0.037,-0.26,-0.05,0.88,7.95,12.76,4.93
0.038,-0.31,-0.04,0.87,4.78,12.38,2.69
0.039,-0.37,-0.06,0.86,3.39,8.75,5.56
0.04,-0.42,-0.09,0.87,-0.92,4.31,9.01
0.041,-0.38,-0.11,0.87,-2.84,-4.85,14.0
0.041,-0.37,-0.13,0.93,-6.76,-10.63,21.25
0.042,-0.36,-0.16,0.95,-10.9,-10.11,26.67
0.043,-0.45,-0.17,0.92,-9.08,-13.83,31.15
0.044,-0.53,-0.16,0.93,-7.36,-18.02,38.98
0.045,-0.55,-0.15,0.91,-8.63,-23.4,50.52
0.046,-0.51,-0.11,0.89,-6.46,-34.0,66.84
0.047,-0.42,-0.1,0.93,-10.96,-45.44,80.18
0.047,-0.3,-0.11,0.96,-16.23,-55.18,91.8
0.048,-0.25,-0.13,1.0,-19.15,-52.49,94.85
0.049,-0.23,-0.11,1.0,-16.67,-47.33,93.76
0.05,-0.25,-0.11,1.01,-13.89,-39.31,92.23
0.051,-0.27,-0.1,1.01,-13.86,-31.57,94.26
0.051,-0.24,-0.09,1.0,-11.5,-33.88,98.26
0.052,-0.22,-0.1,1.01,-14.34,-35.47,104.55
0.053,-0.16,-0.14,0.99,-16.81,-35.07,115.34
0.054,-0.11,-0.16,1.0,-16.99,-29.37,122.47
0.055,-0.12,-0.1,0.96,-11.48,-22.43,116.89
0.055,-0.06,-0.1,0.95,-7.27,-20.81,115.15
0.056,-0.04,-0.1,0.94,-8.12,-17.97,111.56
0.057,-0.03,-0.1,0.95,-6.05,-16.87,104.72
0.058,0.03,-0.12,0.97,-7.54,-18.43,102.67
0.058,0.02,-0.13,0.95,-10.61,-14.06,97.74
0.059,0.02,-0.12,0.94,-8.69,-8.98,93.37
0.06,0.02,-0.1,0.92,-8.41,-7.34,90.24
0.061,-0.0,-0.08,0.93,-8.34,-3.83,87.86
0.061,0.05,-0.11,0.98,-13.98,-9.18,86.44
0.062,0.13,-0.11,1.02,-15.08,-17.66,88.49
0.063,0.17,-0.1,1.03,-12.27,-13.37,85.08
0.064,0.16,-0.1,1.04,-9.11,-7.44,78.85
0.064,0.13,-0.06,1.02,-5.47,-1.1,68.67
0.065,0.09,-0.06,1.02,-4.34,0.43,61.82
0.066,0.08,-0.07,1.03,-8.29,-2.82,54.75
0.067,0.06,-0.08,1.04,-10.53,-6.02,52.43
0.068,0.04,-0.12,1.05,-12.24,-3.59,49.57
0.068,0.01,-0.09,1.02,-8.85,-2.9,45.74
0.069,0.01,-0.07,1.01,-4.14,-3.07,43.98
0.07,0.03,-0.08,1.01,-6.61,-6.34,41.44
0.07,0.04,-0.1,1.03,-8.73,-9.71,39.33
0.071,0.06,-0.11,1.05,-8.14,-9.95,37.19
0.072,0.07,-0.1,1.02,-4.69,-8.78,34.56
0.073,0.05,-0.08,0.99,2.17,-4.96,32.09
0.074,0.04,-0.06,0.98,0.15,-0.2,27.59
0.074,0.02,-0.05,0.97,-0.52,-3.62,21.98
0.075,0.05,-0.1,0.99,-2.67,-3.39,19.74
0.076,0.06,-0.1,0.98,2.12,-4.38,1.65
0.079,0.04,-0.11,0.99,0.49,-5.11,0.63
0.097,0.05,-0.14,1.0,-2.18,-4.03,-0.75
0.121,0.05,-0.13,1.0,-2.12,-2.11,0.43
0.14,0.03,-0.14,0.99,-1.79,2.23,0.75
0.158,0.02,-0.14,0.99,-2.63,2.96,-0.82
0.176,0.02,-0.14,0.99,-1.76,-0.49,-0.09
0.2,0.02,-0.15,0.99,-2.17,0.56,0.5
0.218,0.03,-0.14,0.98,-0.5,-1.31,1.44
0.237,0.03,-0.12,0.99,0.47,-2.2,2.14
0.26,0.03,-0.14,0.99,-1.07,-0.93,1.71
0.279,0.05,-0.14,1.01,-2.09,-2.05,1.77
0.297,0.04,-0.15,1.01,-1.34,-1.15,2.29
0.321,0.03,-0.15,1.03,-1.89,1.13,1.63
0.339,0.03,-0.14,1.02,0.44,-1.62,1.51
0.358,0.01,-0.14,1.01,1.71,-0.66,2.35
0.378,0.01,-0.15,1.01,0.79,1.53,2.82
0.398,0.02,-0.16,1.01,0.61,0.44,3.57
0.418,0.01,-0.14,0.99,1.36,0.69,4.99
0.437,0.02,-0.13,0.98,1.45,0.95,8.73
0.461,0.01,-0.13,0.97,-1.56,1.51,10.34
0.479,0.0,-0.14,0.97,-4.27,-2.31,9.51
0.498,0.03,-0.17,1.0,-6.67,-5.8,11.11
0.521,0.05,-0.19,1.01,-7.86,-3.39,11.92
0.54,0.03,-0.18,1.01,-1.47,-2.47,9.59
0.558,0.02,-0.17,1.01,4.72,-2.72,9.44
0.578,0.0,-0.14,1.0,4.64,1.53,7.18
0.601,0.01,-0.15,1.01,4.02,-0.63,7.82
0.62,0.02,-0.14,1.02,2.93,-3.89,8.05
0.638,0.04,-0.16,1.04,3.53,-5.4,8.89
0.657,0.06,-0.16,1.02,4.23,-5.94,8.69
0.68,0.08,-0.15,1.0,4.2,-4.72,7.82
0.699,0.08,-0.14,1.01,3.82,-3.31,5.98
0.717,0.06,-0.13,0.99,4.41,-2.98,4.14
0.741,0.05,-0.14,0.98,3.77,-3.79,2.31
0.759,0.04,-0.15,0.98,2.47,-4.08,2.35
0.778,0.04,-0.14,0.97,2.78,-2.37,3.76
0.796,0.03,-0.14,0.99,1.62,-1.92,3.05
0.82,0.05,-0.14,0.98,1.57,-4.67,3.02
0.838,0.05,-0.13,0.98,1.94,-5.79,3.4
0.857,0.05,-0.14,0.99,-0.24,-3.25,2.61
0.88,0.05,-0.15,1.0,0.0,-4.32,2.6
0.899,0.05,-0.14,1.0,0.34,-3.47,2.32
0.917,0.05,-0.13,1.0,0.06,-2.23,1.33
0.941,0.06,-0.12,1.0,0.76,-1.63,1.73
0.959,0.05,-0.13,1.0,0.55,-0.96,1.42
0.978,0.05,-0.14,1.0,-1.34,-0.2,1.05
1.001,0.05,-0.14,1.01,-0.52,-2.58,0.55
1.02,0.05,-0.15,1.02,0.4,-1.91,0.85
1.038,0.05,-0.16,1.01,-0.53,-0.43,0.05
1.057,0.06,-0.15,1.01,0.29,-2.03,0.76
1.08,0.06,-0.16,1.01,0.61,-1.11,0.46
1.099,0.07,-0.15,1.01,0.63,-1.15,-0.08
1.117,0.08,-0.15,1.01,0.26,-1.74,-0.55
1.141,0.08,-0.16,1.03,0.03,-2.02,-2.52
1.159,0.1,-0.17,1.02,2.08,-3.82,-2.52
1.178,0.1,-0.16,1.01,3.33,-2.23,-3.3
1.201,0.12,-0.16,1.01,3.56,-2.52,-6.02
1.22,0.11,-0.16,1.0,3.57,-3.15,-7.04
1.238,0.11,-0.16,1.0,3.83,-1.4,-9.36
1.261,0.12,-0.16,1.0,3.34,-2.14,-11.8
1.279,0.14,-0.15,1.0,4.79,-3.45,-13.07
1.298,0.15,-0.16,1.02,4.85,-2.24,-14.79
1.321,0.15,-0.17,1.01,4.09,-0.99,-16.4
1.34,0.17,-0.18,1.03,4.58,-1.39,-20.17
1.358,0.18,-0.18,1.02,7.08,-2.52,-22.92
1.381,0.18,-0.17,1.01,8.81,-0.14,-26.05
1.4,0.18,-0.17,0.99,9.11,1.02,-30.84
1.418,0.17,-0.16,0.99,8.96,0.41,-34.17
1.437,0.17,-0.18,1.0,6.49,2.79,-37.21
1.46,0.17,-0.19,1.0,6.38,3.56,-40.4
1.478,0.2,-0.18,1.01,7.77,2.43,-43.56
1.497,0.22,-0.18,1.01,8.05,2.23,-47.69
1.52,0.19,-0.18,1.01,6.99,4.73,-51.98
1.539,0.18,-0.19,1.02,7.24,5.86,-57.36
1.557,0.17,-0.18,1.01,9.11,6.05,-62.31
1.581,0.16,-0.17,1.0,11.25,6.7,-66.67
1.599,0.15,-0.18,1.0,10.35,9.16,-69.25
1.617,0.14,-0.18,0.99,10.99,8.9,-72.63
1.641,0.12,-0.16,0.98,13.04,9.6,-76.0
1.659,0.1,-0.14,0.97,11.18,13.62,-77.97
1.677,0.13,-0.16,0.99,9.25,11.65,-78.26
1.701,0.14,-0.16,0.99,7.21,9.15,-80.81
1.719,0.13,-0.15,0.98,10.56,10.23,-84.03
1.737,0.14,-0.14,1.0,11.21,16.32,-86.56
1.761,0.18,-0.14,1.0,8.92,17.85,-90.35
1.779,0.11,-0.13,0.99,10.24,18.89,-95.36
1.797,0.03,-0.15,1.01,10.0,20.6,-98.78
1.821,0.02,-0.14,1.01,10.69,22.17,-95.95
1.839,0.04,-0.12,1.02,14.08,21.3,-95.45
1.857,0.06,-0.12,1.01,15.21,17.85,-97.24
1.88,0.06,-0.1,1.0,15.73,17.25,-98.43
1.898,0.04,-0.11,0.99,14.81,22.56,-98.09
1.917,0.01,-0.13,1.01,12.32,26.75,-96.46
1.94,-0.04,-0.11,1.0,14.72,27.76,-97.1
1.958,-0.06,-0.1,0.96,20.08,24.55,-95.92
1.976,-0.05,-0.08,0.95,20.02,26.58,-94.67
2.0,-0.06,-0.06,0.91,17.85,28.32,-88.66
2.018,-0.13,-0.05,0.9,18.67,29.82,-86.31
2.041,-0.13,-0.05,0.95,14.23,23.3,-87.34
2.059,-0.02,-0.1,0.98,14.84,0.72,-85.51
2.078,-0.03,-0.08,0.96,17.83,6.26,-82.84
2.101,-0.1,-0.03,0.95,22.03,26.0,-84.14
2.119,-0.16,0.01,0.94,19.62,34.79,-85.79
2.137,-0.09,0.01,0.95,16.47,25.85,-83.69
2.161,-0.0,-0.01,0.98,8.2,21.48,-83.27
2.179,-0.06,-0.05,0.99,3.33,25.89,-87.24
2.197,-0.05,-0.06,1.02,1.73,31.16,-89.34
2.221,0.05,-0.09,1.04,4.09,31.37,-87.5
2.239,0.0,-0.12,1.02,6.72,41.85,-91.65
2.257,-0.14,-0.18,1.0,7.98,53.05,-98.38
2.281,-0.28,-0.18,0.96,7.5,59.34,-96.49
2.299,-0.29,-0.09,1.02,11.45,60.56,-86.6
2.317,0.02,-0.15,1.1,10.24,48.67,-73.5
2.34,-0.07,-0.28,1.08,11.54,46.18,-70.27
2.358,-0.43,-0.18,0.83,27.76,52.02,-85.91
2.377,-0.83,0.02,0.7,39.05,58.26,-84.12
2.4,-0.77,0.03,0.76,23.25,49.82,-66.78
2.418,-0.47,-0.07,0.85,-1.08,10.24,-46.58
2.437,-0.35,-0.13,0.96,-7.31,-8.76,-31.25
2.46,-0.38,-0.17,1.02,-8.67,3.86,-36.35
2.478,-0.41,-0.15,0.96,3.53,6.73,-31.11
2.496,-0.41,-0.12,0.93,8.52,12.55,-24.08
2.52,-0.47,-0.11,0.9,7.69,23.5,-16.64
2.538,-0.44,-0.09,0.88,10.12,15.94,-12.9
2.561,-0.37,-0.04,0.87,11.22,4.98,-7.07
2.58,-0.35,-0.02,0.87,7.16,9.83,-0.49
2.598,-0.33,-0.02,0.9,1.86,7.76,0.75
2.617,-0.29,-0.02,0.93,0.82,0.81,4.0
2.64,-0.29,-0.05,0.94,-2.08,3.15,4.87
2.659,-0.3,-0.03,0.95,-0.26,1.24,3.88
2.677,-0.29,-0.04,0.96,-0.05,0.61,6.0
2.701,-0.27,-0.06,1.0,-1.97,1.89,4.41
2.719,-0.23,-0.05,0.99,0.0,-1.36,4.38
2.737,-0.24,-0.03,0.98,3.31,-1.77,2.6
2.761,-0.27,-0.01,0.98,3.94,2.67,1.36
2.779,-0.27,-0.02,0.96,2.49,1.89,0.63
2.798,-0.33,-0.04,0.96,0.95,1.83,0.82
2.816,-0.33,-0.05,1.0,0.23,-0.53,0.95
2.84,-0.25,-0.08,1.02,-0.89,-7.13,3.83
2.858,-0.27,-0.05,0.99,4.31,-4.79,3.25
2.876,-0.31,-0.03,0.97,8.78,1.42,2.84
2.9,-0.21,-0.04,1.0,4.23,-2.96,3.47
2.918,-0.25,-0.06,1.0,5.02,-0.2,3.11
2.937,-0.32,-0.05,0.94,7.62,6.58,0.02
2.961,-0.34,-0.04,0.93,8.5,7.11,1.63
2.979,-0.31,-0.04,0.92,5.34,4.81,2.84
2.997,-0.31,-0.04,0.93,4.96,1.79,4.4
3.021,-0.33,-0.05,0.92,3.07,0.76,5.22
3.04,-0.28,-0.03,0.92,2.52,-0.37,6.47
3.058,-0.23,-0.04,0.94,2.11,-3.15,7.98
3.076,-0.23,-0.05,0.93,1.88,-0.03,6.84
3.1,-0.26,-0.04,0.92,2.44,4.17,5.16
3.118,-0.29,-0.04,0.91,4.09,2.29,3.45
3.137,-0.32,-0.05,0.91,2.6,0.47,3.42
3.16,-0.29,-0.03,0.91,2.27,-3.47,3.88
3.179,-0.25,-0.0,0.9,0.29,-1.13,8.12
3.197,-0.21,-0.0,0.92,-3.4,3.47,7.79
3.221,-0.23,-0.01,0.91,-4.46,4.99,5.63
3.239,-0.27,-0.0,0.89,-3.22,3.36,1.1
3.257,-0.31,-0.03,0.89,-3.33,2.98,1.21
3.281,-0.3,-0.02,0.91,-4.44,0.4,0.4
3.299,-0.28,-0.02,0.92,-4.55,-4.56,3.21
3.318,-0.26,-0.05,0.94,-7.82,-3.77,2.08
3.341,-0.26,-0.05,0.94,-8.31,-3.74,1.91
3.359,-0.29,-0.07,0.96,-7.66,-2.63,1.59
3.378,-0.29,-0.06,0.96,-5.86,-3.19,0.21
3.401,-0.29,-0.05,0.96,-2.92,-3.73,2.96
3.42,-0.28,-0.06,0.98,-4.99,0.31,3.04
3.438,-0.26,-0.04,0.97,-2.95,-1.27,3.98
3.456,-0.28,-0.05,0.96,-2.03,1.02,3.76
3.48,-0.28,-0.05,0.95,-2.7,2.02,2.99
3.498,-0.28,-0.06,0.95,-1.47,0.95,3.59
3.517,-0.29,-0.06,0.95,-2.32,1.97,1.8
3.54,-0.28,-0.07,0.96,-0.81,0.0,2.81
3.559,-0.29,-0.06,0.95,-0.92,0.32,3.53
3.577,-0.29,-0.06,0.95,-0.43,2.41,4.6
3.6,-0.26,-0.07,0.96,-1.3,-0.89,4.4
3.619,-0.25,-0.06,0.96,-0.12,-1.8,4.61
3.637,-0.26,-0.06,0.95,1.02,0.66,3.39
3.661,-0.27,-0.05,0.94,1.51,2.06,2.47
3.679,-0.29,-0.05,0.93,2.64,2.02,1.68
3.698,-0.3,-0.03,0.93,1.42,2.46,1.69
3.721,-0.29,-0.03,0.93,-0.15,-0.26,1.82
3.74,-0.3,-0.05,0.95,-1.3,-1.27,1.98
3.758,-0.3,-0.07,0.95,-2.38,-3.69,0.38
3.781,-0.29,-0.08,0.96,-1.57,-5.3,2.67
3.8,-0.31,-0.08,0.95,-2.75,-1.95,1.88
3.818,-0.32,-0.07,0.94,-2.38,-3.34,2.53
3.836,-0.29,-0.07,0.95,-2.35,-6.06,3.27
3.86,-0.27,-0.09,0.96,-3.8,-4.05,4.47
3.878,-0.28,-0.08,0.98,-2.69,-2.79,4.05
3.896,-0.25,-0.07,0.96,0.85,-5.1,2.84
3.92,-0.27,-0.07,0.95,1.98,-1.76,3.92
3.938,-0.28,-0.07,0.92,0.6,2.43,2.58
3.957,-0.29,-0.07,0.93,1.13,0.92,3.13
3.98,-0.29,-0.07,0.93,-1.22,0.85,3.5
3.999,-0.27,-0.06,0.94,-0.35,-2.02,4.29
