timestamp,acce_x,acce_y,acce_z,gyro_x,gyro_y,gyro_z
0.001,-0.26,-0.06,0.97,0.17,-2.76,4.72
0.003,-0.27,-0.06,0.96,-0.12,-3.42,2.6
0.004,-0.26,-0.07,0.95,2.14,-5.57,2.6
0.006,-0.24,-0.08,0.98,0.76,-3.6,2.31
0.007,-0.24,-0.06,0.97,1.24,-2.03,2.05
0.008,-0.27,-0.07,0.96,2.58,0.24,1.54
0.01,-0.27,-0.05,0.94,2.26,0.6,0.53
0.011,-0.26,-0.06,0.96,3.24,0.24,2.0
0.012,-0.26,-0.06,0.94,0.7,2.12,-0.4
0.013,-0.28,-0.06,0.93,3.77,1.19,0.02
0.014,-0.27,-0.06,0.93,2.12,3.31,-0.08
0.015,-0.29,-0.05,0.92,-0.46,5.07,0.09
0.017,-0.3,-0.06,0.93,-0.66,3.44,-0.05
0.018,-0.29,-0.07,0.94,-2.34,0.64,-0.35
0.019,-0.27,-0.08,0.95,-3.82,0.9,1.13
0.02,-0.29,-0.08,0.94,-1.98,2.85,1.85
0.021,-0.29,-0.08,0.95,-0.37,2.44,2.0
0.022,-0.29,-0.08,0.94,0.06,1.15,1.85
0.023,-0.28,-0.07,0.94,-0.81,2.58,2.12
0.024,-0.3,-0.08,0.95,-0.89,3.51,1.42
0.025,-0.32,-0.07,0.93,-0.14,2.47,1.94
0.026,-0.32,-0.06,0.94,-0.76,1.51,2.84
0.027,-0.3,-0.08,0.96,-2.58,1.08,3.74
0.028,-0.29,-0.09,0.96,-1.76,-1.33,5.02
0.029,-0.31,-0.11,0.97,-0.05,0.55,5.45
0.03,-0.32,-0.1,0.93,1.66,0.78,5.42
0.031,-0.31,-0.08,0.95,3.66,-0.55,7.69
0.032,-0.29,-0.08,0.95,3.31,0.56,8.24
0.033,-0.3,-0.05,0.95,3.62,1.11,8.82
0.034,-0.29,-0.05,0.94,2.95,0.92,8.96
0.034,-0.32,-0.07,0.95,2.99,0.35,8.84
0.035,-0.35,-0.06,0.93,3.57,-0.26,10.58
0.036,-0.37,-0.06,0.94,4.41,-1.45,12.81
0.037,-0.36,-0.08,0.95,2.34,-3.51,14.85
0.038,-0.35,-0.07,0.95,2.24,-5.95,18.02
0.039,-0.39,-0.08,0.95,2.81,-3.66,21.65
0.04,-0.45,-0.07,0.95,3.6,-2.03,24.31
0.041,-0.5,-0.07,0.94,3.82,-7.94,30.37
0.041,-0.51,-0.05,0.93,5.21,-16.05,41.37
0.042,-0.46,-0.04,0.93,2.56,-22.64,53.97
0.043,-0.38,-0.05,0.93,-2.61,-28.31,64.34
0.044,-0.35,-0.05,0.95,-3.42,-34.72,67.6
0.045,-0.32,-0.06,0.94,-3.24,-37.83,72.9
0.046,-0.28,-0.05,0.96,-3.83,-34.11,75.8
0.047,-0.24,-0.03,0.96,-1.15,-31.01,77.3
0.047,-0.25,-0.02,0.94,-0.5,-24.0,73.56
0.048,-0.28,-0.02,0.92,0.93,-22.27,70.46
0.049,-0.35,0.01,0.91,0.99,-17.27,74.98
0.05,-0.36,0.01,0.88,-1.13,-13.47,81.45
0.051,-0.35,0.01,0.82,-4.52,-17.85,89.91
0.052,-0.31,0.0,0.74,-10.98,-20.11,95.04
0.052,-0.32,-0.02,0.75,-18.37,-13.28,93.34
0.053,-0.35,-0.02,0.76,-24.44,-9.68,76.14
0.054,-0.45,-0.02,0.7,-26.09,-22.49,63.13
0.055,-0.52,-0.04,0.66,-28.15,-32.32,72.6
0.056,-0.55,-0.06,0.72,-43.74,-24.02,91.36
0.056,-0.27,-0.15,0.85,-60.49,-40.92,116.52
0.057,-0.11,-0.23,0.94,-69.51,-61.85,122.69
0.058,-0.13,-0.24,0.96,-60.31,-67.01,124.55
0.059,-0.22,-0.23,1.01,-53.5,-41.48,128.12
0.06,-0.25,-0.27,1.08,-50.64,-25.3,133.95
0.06,-0.16,-0.29,1.07,-46.08,-40.23,138.4
0.061,-0.07,-0.3,1.1,-36.84,-56.99,144.29
0.062,-0.04,-0.28,1.1,-31.05,-52.66,157.68
0.063,0.05,-0.34,1.09,-28.64,-40.52,166.55
0.064,0.12,-0.41,1.12,-24.63,-44.72,165.97
0.064,0.22,-0.35,1.1,-8.21,-47.42,151.15
0.065,0.27,-0.33,1.06,7.07,-40.76,146.84
0.066,0.32,-0.29,1.06,8.47,-35.04,145.33
0.067,0.32,-0.28,1.03,7.69,-30.7,136.02
0.067,0.24,-0.26,1.02,11.24,-24.6,133.42
0.068,0.23,-0.21,0.99,8.73,-21.65,131.85
0.069,0.27,-0.18,0.96,3.36,-28.47,127.05
0.07,0.29,-0.16,0.93,-2.69,-40.7,125.92
0.07,0.37,-0.16,0.95,-13.42,-36.15,122.11
0.071,0.4,-0.16,0.95,-22.41,-22.06,109.1
0.072,0.28,-0.17,0.93,-23.54,-6.52,84.99
0.073,0.26,-0.19,1.02,-20.17,-0.85,70.73
0.073,0.4,-0.24,0.98,-14.72,-0.66,72.52
0.074,0.23,-0.28,1.08,-26.35,34.9,46.26
0.075,0.09,-0.28,1.09,-19.21,32.93,17.5
0.075,0.28,-0.25,1.1,-0.24,-0.34,17.92
0.076,0.31,-0.27,1.13,-0.32,5.21,13.4
0.077,0.05,-0.16,0.99,3.89,14.56,-1.89
0.078,0.08,-0.15,0.98,-3.05,-9.62,1.19
0.078,0.11,-0.15,0.98,-3.44,-8.2,0.09
0.091,0.1,-0.16,0.97,-4.66,-4.38,-2.09
0.109,0.09,-0.17,0.98,-4.67,1.89,-1.44
0.127,0.02,-0.21,1.0,-6.82,10.67,-3.15
0.151,0.03,-0.2,1.01,-5.3,9.71,-4.56
0.168,0.07,-0.19,1.0,1.54,3.76,0.84
0.192,0.04,-0.18,1.0,1.89,10.34,1.62
0.21,0.03,-0.18,0.99,4.31,8.06,-2.49
0.228,0.06,-0.17,0.98,8.05,1.8,0.27
0.252,0.04,-0.17,1.0,5.51,10.38,1.44
0.27,0.03,-0.17,1.0,6.72,13.48,2.24
0.288,0.0,-0.16,1.0,9.65,9.74,1.63
0.308,0.01,-0.16,1.0,9.05,7.15,0.37
0.328,0.01,-0.17,0.99,7.66,7.98,2.29
0.352,-0.0,-0.16,0.98,6.32,12.96,1.85
0.37,-0.01,-0.17,0.98,7.1,11.47,2.72
0.389,-0.01,-0.16,0.98,6.87,9.86,3.77
0.407,-0.03,-0.15,0.99,6.24,9.34,3.47
0.431,-0.01,-0.16,0.99,4.76,6.23,4.66
0.449,-0.02,-0.15,0.98,3.37,4.73,4.69
0.468,-0.01,-0.16,0.99,2.02,3.6,5.24
0.492,-0.01,-0.15,0.99,1.68,0.64,4.89
0.51,-0.01,-0.16,1.01,0.72,0.81,5.79
0.529,-0.01,-0.16,1.01,-1.1,2.85,5.39
0.552,-0.03,-0.15,0.98,-0.56,4.24,6.2
0.57,-0.04,-0.16,0.99,-1.24,4.2,6.08
0.589,-0.03,-0.17,1.0,-3.57,1.63,7.28
0.607,-0.02,-0.15,0.99,-2.32,-0.6,9.18
0.631,-0.0,-0.13,0.98,0.0,0.46,12.56
0.649,-0.0,-0.15,1.0,-2.34,0.66,11.77
0.667,0.03,-0.16,0.99,-2.76,-5.88,9.68
0.691,0.02,-0.19,1.01,-3.08,-5.13,8.21
0.709,0.01,-0.18,1.01,-2.7,-1.65,6.63
0.728,-0.0,-0.19,1.03,-0.35,-0.14,6.2
0.751,0.01,-0.19,1.03,-1.36,0.72,5.3
0.769,0.04,-0.17,1.01,2.29,-2.05,4.75
0.788,0.01,-0.15,1.02,2.32,2.2,4.21
0.808,0.01,-0.16,0.99,1.91,1.86,1.76
0.832,-0.02,-0.17,1.0,2.6,-1.4,1.05
0.85,-0.01,-0.18,1.01,0.31,-0.21,1.16
0.869,-0.0,-0.16,0.99,2.09,-1.76,1.08
0.887,-0.01,-0.16,1.0,2.21,-1.4,1.39
0.911,0.0,-0.17,1.0,0.06,-3.86,1.3
0.929,0.0,-0.18,1.0,1.39,-3.04,1.6
0.948,0.01,-0.17,0.99,1.79,-2.63,0.7
0.971,0.02,-0.16,0.99,2.64,-1.92,1.27
0.99,-0.0,-0.17,0.99,2.38,0.02,-0.18
1.008,0.01,-0.17,0.99,0.98,-0.98,-0.99
1.032,0.03,-0.17,0.98,2.49,-1.6,-0.4
1.05,0.02,-0.15,0.98,1.8,2.5,-0.89
1.068,0.01,-0.17,1.0,1.4,2.96,-2.05
1.087,0.01,-0.16,0.99,1.95,0.47,-3.83
1.111,0.01,-0.17,1.01,2.17,1.13,-4.55
1.129,-0.03,-0.16,0.99,1.98,3.36,-4.63
1.147,-0.02,-0.16,0.99,2.82,1.63,-4.98
1.171,-0.03,-0.16,0.98,2.76,1.11,-4.18
1.189,-0.03,-0.16,0.98,0.95,2.27,-5.24
1.208,-0.02,-0.15,0.98,0.92,0.49,-3.65
1.231,-0.02,-0.16,0.99,0.44,1.8,-3.31
1.25,-0.01,-0.15,0.98,-0.12,1.13,-3.73
1.268,-0.01,-0.16,0.99,-0.11,0.35,-2.96
1.291,-0.01,-0.16,0.99,-0.69,1.01,-3.8
1.31,-0.0,-0.17,1.01,-0.61,-0.49,-3.27
1.328,0.01,-0.15,0.99,-0.23,0.66,-3.37
1.352,0.0,-0.16,1.0,0.02,1.02,-3.21
1.37,0.0,-0.16,0.99,0.41,-0.18,-3.33
1.388,0.0,-0.15,0.99,1.3,0.63,-3.51
1.412,-0.0,-0.17,1.0,0.53,1.57,-4.27
1.43,-0.0,-0.17,1.0,0.72,-0.27,-4.92
1.449,-0.02,-0.17,1.0,0.55,-0.49,-4.46
1.467,-0.01,-0.17,1.0,1.02,0.69,-4.6
1.491,0.01,-0.16,1.0,2.38,-0.05,-3.91
1.509,0.02,-0.17,1.0,1.62,-0.7,-5.04
1.527,0.01,-0.17,1.0,1.83,-0.41,-5.53
1.551,0.01,-0.17,1.0,1.89,0.37,-6.44
1.569,0.01,-0.18,1.01,2.56,-0.63,-7.45
1.588,0.02,-0.17,0.99,3.62,-0.81,-7.42
1.611,0.01,-0.16,0.99,4.26,0.32,-7.74
1.63,0.01,-0.16,0.99,2.43,1.54,-8.29
1.649,0.01,-0.17,0.99,1.8,0.32,-8.49
1.672,0.02,-0.18,0.99,1.65,0.03,-8.87
1.69,0.04,-0.17,0.98,1.37,1.24,-10.05
1.709,0.04,-0.17,0.99,0.99,0.5,-11.91
1.732,0.05,-0.19,1.0,-0.99,-1.73,-13.63
1.75,0.05,-0.19,0.99,0.26,-2.61,-14.24
1.769,0.04,-0.19,0.98,1.45,1.07,-14.79
1.787,0.05,-0.19,0.99,-0.08,1.31,-17.28
1.811,0.06,-0.19,0.98,0.99,-1.98,-19.39
1.829,0.06,-0.19,1.0,1.16,0.03,-20.35
1.847,0.05,-0.2,0.99,1.07,2.27,-21.62
1.871,0.05,-0.2,1.01,2.05,2.27,-22.9
1.889,0.04,-0.19,1.0,2.75,3.45,-25.07
1.908,0.05,-0.18,0.99,4.02,2.29,-26.64
1.931,0.06,-0.19,0.98,3.04,1.77,-27.05
1.95,0.07,-0.17,1.0,3.04,1.08,-30.85
1.968,0.07,-0.18,1.0,3.85,-0.46,-32.5
1.991,0.07,-0.21,1.01,1.62,1.98,-34.81
2.01,0.05,-0.22,1.01,1.05,3.24,-36.81
2.028,0.06,-0.21,1.0,4.29,3.27,-38.46
2.052,0.06,-0.2,0.98,5.6,3.77,-39.76
2.07,0.06,-0.21,0.99,7.15,4.85,-41.08
2.088,0.06,-0.19,0.98,7.08,5.89,-42.29
2.112,0.06,-0.21,1.0,6.4,5.73,-44.12
2.13,0.06,-0.22,1.0,4.64,4.55,-45.82
2.149,0.05,-0.22,1.01,4.87,3.4,-47.25
2.167,0.07,-0.22,1.0,6.7,2.37,-47.98
2.191,0.07,-0.22,1.03,10.09,4.53,-48.09
2.209,0.07,-0.21,1.01,13.22,5.15,-48.79
2.227,0.09,-0.17,0.99,19.01,3.33,-51.92
2.251,0.11,-0.16,0.98,18.89,1.16,-54.79
2.269,0.12,-0.15,0.98,16.85,0.31,-57.95
2.287,0.13,-0.16,1.0,12.87,1.05,-58.35
2.311,0.12,-0.19,1.03,9.56,2.67,-60.18
2.329,0.14,-0.19,1.02,10.31,0.5,-63.66
2.348,0.12,-0.19,1.0,14.96,3.04,-65.89
2.371,0.1,-0.17,0.99,14.92,10.96,-69.37
2.389,0.09,-0.16,0.99,13.85,11.83,-71.97
2.407,0.13,-0.19,1.01,11.8,12.49,-73.79
2.431,0.1,-0.18,1.0,12.46,16.14,-77.71
2.449,0.08,-0.14,0.97,17.8,19.45,-79.18
2.467,0.08,-0.13,0.97,17.76,23.25,-78.73
2.491,0.08,-0.13,0.97,15.19,23.88,-80.37
2.509,0.04,-0.14,0.97,14.29,26.2,-80.76
2.527,-0.02,-0.14,0.97,15.39,27.54,-83.79
2.55,0.01,-0.14,0.97,17.85,23.51,-83.34
2.569,-0.03,-0.15,1.0,16.61,27.57,-83.25
2.592,-0.01,-0.14,1.02,15.45,29.31,-84.72
2.61,0.03,-0.15,1.03,17.85,26.02,-84.2
2.628,-0.02,-0.15,1.0,20.05,31.27,-86.27
2.652,-0.08,-0.1,0.97,25.36,35.79,-88.69
2.67,-0.11,-0.1,0.96,25.04,40.78,-84.7
2.688,-0.13,-0.13,0.98,18.64,40.72,-82.63
2.711,-0.1,-0.13,1.0,19.01,32.35,-80.06
2.729,-0.11,-0.13,1.0,20.87,31.97,-81.08
2.747,-0.15,-0.1,0.96,23.5,35.02,-84.09
2.771,-0.15,-0.08,0.95,27.62,28.87,-84.67
2.789,-0.17,-0.09,0.98,21.91,29.1,-80.12
2.807,-0.22,-0.1,0.98,19.95,34.84,-77.4
2.83,-0.17,-0.13,0.78,19.16,35.36,-76.26
2.848,-0.22,-0.11,0.98,10.52,55.07,-77.82
2.872,-0.2,-0.1,1.01,21.59,26.46,-62.92
2.89,-0.17,-0.08,0.97,23.42,23.5,-59.28
2.908,-0.17,-0.08,0.96,19.16,33.24,-63.65
2.931,-0.17,-0.08,0.96,18.73,33.34,-65.24
2.95,-0.18,-0.09,0.98,18.69,30.63,-68.96
2.968,-0.17,-0.09,0.99,22.03,26.9,-71.91
2.991,-0.09,-0.08,0.99,25.07,25.54,-72.53
3.009,-0.04,-0.07,0.99,26.29,31.62,-75.05
3.027,-0.08,-0.08,0.97,25.8,45.57,-78.56
3.051,-0.14,-0.07,0.95,26.58,57.66,-87.07
3.069,-0.13,-0.08,0.93,27.25,56.84,-91.31
3.092,-0.22,-0.08,0.86,27.54,63.98,-85.94
3.11,-0.37,-0.06,0.8,26.05,83.1,-84.66
3.128,-0.43,-0.05,0.78,20.6,82.31,-82.09
3.152,-0.48,-0.11,0.82,12.64,68.75,-72.34
3.17,-0.43,-0.14,0.86,10.63,61.31,-62.29
3.188,-0.44,-0.15,0.85,14.92,58.12,-61.15
3.211,-0.57,-0.15,0.8,21.44,49.6,-64.85
3.229,-0.72,-0.16,0.78,20.82,52.27,-61.39
3.247,-0.8,-0.13,0.76,16.81,46.26,-55.54
3.271,-0.82,-0.14,0.78,13.73,28.47,-42.4
3.289,-0.79,-0.14,0.77,7.5,13.04,-33.6
3.307,-0.81,-0.16,0.76,6.12,1.34,-20.03
3.331,-0.83,-0.11,0.71,5.65,-6.02,-12.75
3.349,-0.72,-0.07,0.73,6.11,-19.98,0.85
3.367,-0.58,-0.07,0.79,-4.27,-30.6,12.14
3.391,-0.45,-0.07,0.82,-8.63,-35.68,17.88
3.409,-0.4,-0.07,0.88,-7.6,-31.69,21.47
3.432,-0.31,-0.08,0.89,-9.69,-23.27,18.15
3.45,-0.33,-0.08,0.9,-5.05,-16.79,14.66
3.469,-0.39,-0.07,0.9,-2.27,-4.09,9.08
3.492,-0.37,-0.07,0.88,-1.28,-0.08,7.71
3.51,-0.4,-0.07,0.86,0.6,3.19,8.2
3.529,-0.44,-0.08,0.88,-0.6,7.53,6.5
3.547,-0.4,-0.08,0.91,-1.77,1.98,5.95
3.571,-0.43,-0.08,0.9,-1.33,0.72,6.23
3.589,-0.43,-0.08,0.89,0.64,2.55,5.57
3.608,-0.43,-0.08,0.9,-0.82,1.97,6.64
3.631,-0.42,-0.09,0.9,-0.89,-3.13,6.24
3.649,-0.4,-0.08,0.9,0.52,-6.09,6.63
3.668,-0.4,-0.09,0.91,1.27,-6.27,7.48
3.691,-0.37,-0.08,0.91,0.64,-4.85,5.83
3.71,-0.36,-0.07,0.92,4.44,-7.45,6.11
3.728,-0.4,-0.08,0.9,4.46,-2.49,5.25
3.752,-0.38,-0.06,0.88,4.0,0.55,3.22
3.77,-0.39,-0.07,0.87,3.07,-1.28,4.73
3.789,-0.41,-0.07,0.88,0.72,3.79,3.33
3.807,-0.43,-0.07,0.86,2.18,0.98,2.64
3.831,-0.39,-0.08,0.87,1.98,-6.35,3.45
3.849,-0.37,-0.07,0.86,-0.53,-5.04,3.53
3.867,-0.39,-0.07,0.87,-0.38,-2.15,3.59
3.891,-0.36,-0.08,0.9,-2.24,-2.14,3.76
3.909,-0.33,-0.09,0.91,-2.67,-2.37,2.0
3.927,-0.37,-0.1,0.9,0.49,-2.52,1.53
3.951,-0.41,-0.09,0.91,1.94,2.09,0.24
3.969,-0.36,-0.09,0.91,0.27,1.95,1.3
3.988,-0.34,-0.08,0.92,1.92,-0.12,1.07
