timestamp,acce_x,acce_y,acce_z,gyro_x,gyro_y,gyro_z
0.006,-0.19,0.15,-1.0,0.73,6.31,-0.47
0.015,-0.12,0.19,-0.98,3.39,6.96,-4.93
0.021,-0.17,0.19,-0.99,-1.76,-3.98,-4.95
0.026,-0.12,0.18,-1.02,-7.15,-8.41,-4.47
0.031,-0.12,0.18,-0.99,-6.89,-5.73,-2.31
0.035,-0.12,0.17,-1.0,-6.32,-1.59,-0.61
0.039,-0.17,0.18,-1.04,-5.01,1.37,0.95
0.043,-0.15,0.18,-1.02,-3.4,1.36,1.31
0.048,-0.15,0.18,-1.0,-2.84,9.36,1.83
0.052,-0.16,0.17,-0.97,-0.84,12.95,0.78
0.057,-0.12,0.2,-0.98,1.94,5.33,-2.15
0.061,-0.12,0.18,-1.03,-0.17,0.67,-3.33
0.066,-0.13,0.18,-1.03,-0.14,3.27,-1.42
0.07,-0.15,0.17,-1.01,-0.61,0.66,-0.32
0.075,-0.15,0.16,-0.97,2.61,3.18,-0.55
0.079,-0.15,0.19,-0.99,6.34,8.43,-2.46
0.084,-0.11,0.18,-1.04,-1.85,0.03,-6.32
0.09,-0.14,0.18,-1.07,-1.45,7.39,-3.6
0.095,-0.12,0.19,-1.03,2.31,12.73,-2.21
0.098,-0.08,0.19,-1.1,3.19,15.39,-2.85
0.1,-0.03,0.2,-1.22,5.07,28.6,-0.82
0.102,-0.07,0.2,-1.3,13.59,46.66,5.47
0.104,-0.02,0.23,-1.5,29.95,77.98,7.79
0.106,0.01,0.21,-1.43,51.34,141.11,6.98
0.108,0.02,0.17,-1.44,68.03,199.16,8.64
0.11,0.07,0.12,-1.43,87.95,229.39,11.68
0.112,0.17,0.12,-1.47,108.18,247.63,11.19
0.114,0.29,0.08,-1.31,125.59,301.57,16.18
0.116,0.32,0.06,-1.25,115.16,401.69,11.74
0.118,0.39,0.01,-1.11,89.45,477.25,2.52
0.12,0.48,0.01,-0.86,84.78,500.26,-5.16
0.122,0.6,-0.04,-0.64,77.13,471.77,-5.86
0.123,0.78,-0.06,-0.3,98.53,354.93,10.69
0.125,1.01,-0.05,-0.44,86.46,251.97,25.13
0.128,1.11,-0.16,-0.44,46.18,278.55,16.66
0.13,0.87,-0.19,-0.35,13.4,355.92,13.48
0.131,0.84,-0.16,-0.4,-10.27,365.21,17.08
0.133,0.75,-0.24,-0.1,20.46,331.07,26.99
0.135,0.84,-0.23,0.01,63.33,305.1,43.85
0.137,0.75,-0.23,0.24,31.51,266.85,40.56
0.139,0.7,-0.3,0.24,-16.35,287.24,19.62
0.141,0.56,-0.3,0.12,-61.45,318.58,18.81
0.143,0.37,-0.34,0.18,-42.63,312.06,32.37
0.145,0.24,-0.33,0.42,6.75,295.16,29.79
0.147,0.22,-0.29,0.95,64.96,308.43,21.31
0.148,0.18,-0.28,0.95,43.85,293.94,7.15
0.15,0.21,-0.25,0.78,33.02,252.41,-8.76
0.152,0.29,-0.22,0.75,35.36,223.6,-21.15
0.154,0.25,-0.13,0.8,40.37,172.46,-21.24
0.16,0.49,-0.1,0.87,37.68,111.16,-13.97
0.162,0.33,-0.09,0.91,28.4,118.37,-2.17
0.164,0.24,-0.12,0.92,28.26,123.01,7.97
0.166,0.11,-0.13,0.9,37.04,120.21,17.05
0.167,-0.04,-0.12,1.16,50.55,106.69,14.76
0.169,-0.02,-0.12,1.3,53.76,50.37,2.85
0.171,0.12,-0.11,1.25,28.44,26.61,-15.33
0.173,0.26,-0.09,1.06,10.46,33.4,-25.71
0.175,0.3,-0.04,0.88,15.08,72.29,-23.44
0.177,0.25,-0.0,0.92,16.12,100.87,-14.93
0.179,0.15,-0.09,0.95,14.05,88.37,-2.43
0.181,0.14,-0.07,0.93,24.0,16.98,5.24
0.183,0.13,-0.1,0.91,16.58,-11.63,5.77
0.184,0.22,-0.06,0.97,7.42,-2.21,1.21
0.186,0.19,-0.04,0.92,10.26,6.58,3.95
0.188,0.08,-0.04,0.96,14.73,24.67,8.82
0.19,0.07,-0.06,0.98,15.91,30.53,7.34
0.192,0.16,-0.05,0.96,16.53,37.1,1.16
0.194,0.06,-0.02,1.03,21.51,34.46,-0.81
0.196,0.04,-0.03,1.09,23.37,22.93,1.62
0.197,0.04,-0.03,1.2,29.01,16.26,1.15
0.199,-0.01,-0.02,1.19,23.6,25.34,1.76
0.201,0.0,-0.01,1.13,11.79,19.45,0.44
0.203,0.03,-0.01,1.07,4.78,10.46,-1.51
0.205,0.08,-0.01,1.03,1.89,-11.19,-2.56
0.207,0.12,0.01,1.05,7.13,-20.82,-0.98
0.208,0.07,-0.01,1.16,8.11,-12.46,2.99
0.21,0.04,-0.01,1.13,3.76,-2.55,2.95
0.212,0.02,-0.01,1.08,-4.58,5.36,1.16
0.214,0.05,-0.01,1.05,-7.91,0.98,-1.57
0.216,0.08,-0.0,1.04,-8.34,-10.38,-2.99
0.218,0.05,-0.01,1.07,-6.02,-20.03,1.4
0.22,0.09,-0.01,1.1,-1.59,-26.84,2.87
0.221,0.11,-0.02,1.01,-7.45,-21.83,1.42
0.223,0.1,-0.02,0.96,-13.18,-14.32,0.6
0.225,0.08,-0.02,0.96,-8.03,-11.4,-0.5
0.227,0.1,-0.02,1.0,-3.28,-18.76,-1.5
0.229,0.14,-0.04,0.97,-5.34,-20.67,-3.57
0.231,0.14,-0.03,0.95,-4.44,-12.43,-4.84
0.233,0.12,-0.03,0.96,-3.27,-4.76,-3.76
0.234,0.1,-0.01,0.96,-0.9,1.33,-3.95
0.236,0.12,-0.02,1.01,1.62,4.66,-6.23
0.238,0.16,-0.0,1.03,4.78,2.31,-6.29
0.24,0.16,-0.0,1.06,2.15,10.23,-5.74
0.242,0.12,0.0,1.06,0.03,12.84,-2.29
0.244,0.1,-0.01,1.04,-1.86,5.47,0.12
0.245,0.14,-0.01,1.05,-0.52,-2.66,-0.14
0.247,0.15,-0.0,1.11,-0.31,-0.37,-1.02
0.249,0.05,0.01,1.07,-0.32,1.62,1.76
0.251,-0.08,0.01,1.0,6.58,-16.27,2.17
0.253,0.16,0.0,1.19,34.05,-72.78,-7.34
0.255,0.22,0.03,1.19,40.44,-91.68,-4.58
0.257,0.38,0.02,1.21,33.18,-110.96,3.83
0.258,0.34,0.04,1.29,24.53,-132.95,16.11
0.26,0.24,0.06,1.3,0.55,-154.84,28.21
0.262,0.23,0.06,1.22,-18.12,-167.07,35.44
0.264,0.43,0.09,1.01,-21.68,-207.85,36.72
0.266,0.8,0.1,0.75,-31.28,-239.89,36.41
0.268,0.85,0.07,0.92,-19.19,-243.48,49.18
0.27,0.78,0.01,0.88,-20.78,-226.55,71.77
0.272,0.61,-0.06,0.93,-10.7,-216.43,87.02
0.274,0.48,-0.05,0.9,-18.41,-263.71,91.51
0.275,0.5,-0.16,0.73,-34.31,-324.03,82.76
0.293,0.56,-0.23,0.67,-67.08,-357.79,63.97
0.316,0.61,-0.22,0.17,-89.77,-372.31,44.99
0.335,0.64,-0.22,0.18,-75.68,-396.78,44.69
0.357,0.96,-0.29,-0.08,-51.44,-317.56,31.66
0.376,0.74,-0.25,0.13,-37.54,-260.75,24.43
0.394,0.72,-0.22,-0.01,-41.4,-259.27,24.81
0.417,0.73,-0.26,-0.09,-14.24,-256.18,14.4
0.435,0.74,-0.21,-0.07,-3.3,-292.53,6.15
0.453,0.71,-0.31,-0.39,-13.68,-323.37,1.33
0.476,0.68,-0.2,-0.58,-56.56,-342.32,-0.08
0.494,0.57,-0.18,-0.74,-91.31,-307.68,-9.73
0.517,0.66,-0.14,-0.7,-90.03,-299.22,-27.01
0.535,0.77,-0.03,-0.73,-57.5,-269.88,-25.76
0.554,0.79,-0.05,-0.92,-56.69,-233.25,-12.49
0.576,1.0,-0.01,-1.25,-58.75,-215.85,9.95
0.594,0.89,0.05,-0.88,-28.4,-182.9,61.74
0.617,0.45,-0.32,-0.53,-9.28,-160.99,103.92
0.636,0.03,-0.33,-0.4,88.14,-195.59,98.6
0.654,0.05,-0.27,-0.57,-26.2,-124.44,77.44
0.677,0.04,-0.29,-0.47,-71.69,-157.34,41.79
0.695,0.11,-0.21,-0.92,-107.05,-174.06,19.25
0.717,-0.02,-0.06,-1.03,-157.02,-191.6,-0.98
0.736,0.12,0.01,-1.2,-146.61,-198.29,-19.27
0.753,0.01,0.01,-0.93,-88.46,-142.18,-19.5
0.776,-0.21,0.01,-1.05,-60.92,-88.93,-7.56
0.795,-0.13,0.09,-1.06,-57.45,-70.5,-12.63
0.818,-0.02,0.17,-0.96,-55.94,-72.73,-20.72
0.836,-0.05,0.17,-0.99,-66.61,-75.92,-19.57
0.854,-0.19,0.14,-0.94,-65.73,-60.99,-5.37
0.877,-0.2,0.19,-1.3,-69.16,-56.49,-2.52
0.895,-0.14,0.23,-1.18,-64.34,-42.82,-6.78
0.915,0.03,0.24,-0.94,-48.99,-42.35,-15.77
0.937,-0.02,0.24,-0.95,-47.44,-51.68,-6.44
0.955,-0.09,0.19,-1.05,-58.38,-43.47,7.8
0.983,-0.12,0.18,-0.96,-56.95,-30.15,12.58
0.996,-0.13,0.23,-1.18,-62.63,-30.15,9.5
1.015,-0.05,0.28,-0.85,-56.05,-41.47,5.3
1.037,0.03,0.33,-0.92,-60.5,-53.5,7.63
1.056,-0.12,0.31,-0.99,-70.47,-45.02,23.02
1.075,-0.45,0.3,-0.97,-58.76,-30.44,31.83
1.097,-0.38,0.36,-1.14,-53.05,-20.53,25.69
1.115,-0.38,0.41,-1.09,-50.03,-17.66,18.27
1.135,-0.44,0.43,-1.02,-35.31,-0.47,20.27
1.156,-0.42,0.43,-1.02,-20.5,7.25,15.3
1.175,-0.4,0.43,-0.95,-33.39,0.47,4.11
1.195,-0.25,0.49,-1.11,-27.3,-6.32,-12.14
1.216,-0.15,0.54,-1.24,-27.63,-6.23,-15.5
1.234,-0.19,0.5,-1.11,-9.18,8.35,-2.35
1.257,-0.27,0.44,-1.04,9.89,23.16,8.2
1.276,-0.24,0.41,-0.95,14.81,20.99,-0.38
1.295,-0.14,0.42,-1.01,11.39,9.33,-9.62
1.314,-0.1,0.42,-1.03,9.94,5.94,-8.69
1.336,-0.15,0.39,-0.98,12.63,8.24,-2.81
1.355,-0.17,0.39,-0.97,15.16,11.62,0.14
1.374,-0.09,0.39,-1.01,17.86,10.76,-1.77
1.396,-0.14,0.39,-0.92,20.85,26.7,3.05
1.415,-0.14,0.36,-0.99,9.63,14.79,3.92
1.434,-0.18,0.36,-0.92,14.26,22.06,4.5
1.456,-0.13,0.34,-0.99,14.02,12.15,-0.85
1.474,-0.09,0.34,-0.95,16.21,11.53,-3.11
1.495,-0.09,0.33,-0.93,21.36,19.08,2.21
1.517,-0.11,0.32,-0.96,21.92,24.81,6.61
1.535,-0.12,0.29,-0.9,26.85,21.71,6.34
1.554,-0.1,0.28,-0.9,22.84,12.18,2.12
1.577,-0.11,0.29,-0.93,14.41,4.53,1.11
1.595,-0.12,0.29,-0.97,12.61,-5.77,-0.4
1.614,-0.11,0.3,-0.93,20.84,-9.57,-1.8
1.637,-0.09,0.29,-0.99,13.5,-1.42,-2.52
1.655,-0.11,0.28,-0.94,9.44,9.11,0.53
1.675,-0.11,0.27,-0.95,6.08,9.13,0.7
1.697,-0.12,0.26,-0.97,3.27,8.85,-0.64
1.716,-0.09,0.28,-0.94,5.3,3.18,-5.04
1.735,-0.05,0.28,-1.0,0.72,-2.78,-7.08
1.757,-0.05,0.29,-1.04,-3.15,-2.38,-4.21
1.775,-0.08,0.27,-1.01,1.16,3.59,0.06
1.794,-0.08,0.28,-1.01,2.09,4.99,1.33
1.817,-0.11,0.27,-0.99,4.95,9.83,1.54
1.836,-0.11,0.29,-1.02,4.75,4.09,-0.31
1.854,-0.09,0.28,-0.97,3.31,11.21,-4.44
1.877,-0.1,0.28,-1.01,-0.53,-1.21,-4.92
1.896,-0.09,0.26,-1.01,2.14,-0.95,-4.24
1.914,-0.12,0.28,-0.96,3.56,3.13,-4.37
1.937,-0.05,0.27,-0.96,3.62,5.79,-6.09
1.956,-0.05,0.25,-1.02,2.02,-0.72,-5.16
1.978,-0.05,0.26,-1.03,5.33,1.53,-3.16
1.994,-0.06,0.25,-1.02,9.73,4.75,0.24
2.016,-0.1,0.24,-0.88,17.25,12.49,2.55
2.035,-0.1,0.23,-1.0,5.47,-5.39,-0.9
2.055,-0.11,0.24,-0.97,3.5,-7.77,-6.4
2.076,-0.08,0.25,-1.03,-1.15,-8.03,-9.11
2.095,-0.08,0.26,-1.01,-2.43,-0.4,-8.41
2.114,-0.06,0.25,-1.02,-2.7,-0.63,-8.63
2.136,-0.07,0.25,-0.99,1.42,-3.15,-7.34
2.155,-0.06,0.26,-1.02,0.89,-1.54,-6.56
2.174,-0.11,0.25,-1.01,0.58,-2.05,-3.83
2.196,-0.09,0.23,-0.98,3.27,1.54,-4.05
2.215,-0.1,0.23,-0.99,1.89,-3.36,-6.73
2.234,-0.09,0.26,-0.98,4.03,-3.51,-9.62
2.256,-0.04,0.25,-1.01,3.74,-11.83,-11.42
2.275,-0.08,0.23,-0.99,3.39,-7.13,-5.91
2.294,-0.08,0.23,-1.0,1.4,-1.08,-2.31
2.317,-0.1,0.24,-0.99,0.44,0.99,0.03
2.336,-0.08,0.21,-0.99,-1.42,-0.52,-2.21
2.354,-0.12,0.24,-0.95,1.5,-0.79,-2.99
2.377,-0.07,0.24,-1.0,-1.48,-2.26,-5.76
2.395,-0.03,0.24,-1.0,-2.78,-5.04,-6.92
2.413,-0.06,0.23,-1.04,-3.92,-9.51,-4.49
2.436,-0.11,0.22,-1.03,-2.99,-4.4,0.09
2.455,-0.1,0.23,-1.01,1.53,2.12,-0.2
2.474,-0.15,0.24,-0.98,4.66,6.26,0.03
2.496,-0.1,0.23,-0.99,5.13,4.72,-1.88
2.515,-0.08,0.22,-0.96,0.2,0.9,-3.04
2.533,-0.1,0.22,-0.97,0.99,1.86,-1.1
2.557,-0.11,0.22,-0.99,-3.45,-4.34,-1.88
2.575,-0.09,0.22,-1.0,-2.79,-7.36,-3.19
2.595,-0.1,0.22,-0.99,-3.97,-5.88,-3.21
2.617,-0.11,0.21,-0.99,-4.18,-1.34,-2.35
2.635,-0.15,0.22,-0.95,-3.45,0.5,-2.17
2.654,-0.12,0.22,-0.98,-2.67,-0.11,-5.66
2.677,-0.09,0.23,-1.05,-7.36,-11.42,-9.51
2.695,-0.07,0.25,-1.03,-4.11,-2.64,-9.05
2.713,-0.07,0.24,-0.99,-4.26,-1.31,-5.6
2.736,-0.17,0.23,-1.01,-2.41,0.08,-1.83
2.755,-0.12,0.25,-1.01,-0.24,-5.36,-7.82
2.774,-0.04,0.27,-1.04,-0.4,-13.42,-12.46
2.796,-0.1,0.25,-1.02,-1.82,-3.16,-4.67
2.814,-0.13,0.22,-1.01,-3.74,-3.45,0.05
2.833,-0.15,0.21,-0.97,-0.43,-1.08,0.09
2.857,-0.13,0.22,-0.99,-0.61,-3.6,-3.51
2.875,-0.12,0.26,-0.95,-0.31,-4.37,-5.8
2.893,-0.09,0.26,-0.99,-1.68,-8.12,-6.08
2.916,-0.1,0.26,-1.03,-2.73,-6.18,-4.17
2.935,-0.15,0.25,-0.99,0.14,-0.92,-0.44
2.954,-0.11,0.25,-1.0,3.05,-0.38,-2.11
2.976,-0.08,0.25,-0.98,2.69,-0.93,-3.79
2.995,-0.08,0.25,-0.98,2.46,-0.99,-3.18
3.025,-0.13,0.25,-0.97,2.55,-0.73,-0.55
3.037,-0.13,0.26,-0.96,1.36,-4.75,-1.44
3.055,-0.13,0.25,-1.02,1.4,-8.14,-3.13
3.074,-0.12,0.25,-0.99,2.5,-9.83,-5.89
3.096,-0.06,0.25,-1.0,3.56,-11.02,-7.92
3.115,-0.08,0.23,-0.96,4.03,-4.46,-2.82
3.134,-0.16,0.19,-0.93,6.87,4.06,4.06
3.157,-0.18,0.19,-0.96,4.95,1.27,3.25
3.175,-0.15,0.2,-0.99,3.01,-3.73,-2.73
3.195,-0.09,0.2,-0.99,0.69,-8.78,-7.86
3.217,-0.1,0.2,-0.95,0.0,-6.32,-4.81
3.235,-0.16,0.19,-1.0,-2.82,-4.29,-0.17
3.254,-0.15,0.19,-1.02,-3.44,0.44,-0.43
3.277,-0.14,0.19,-0.99,-0.72,0.53,-3.47
3.295,-0.14,0.2,-0.99,-0.67,-0.96,-3.08
3.314,-0.15,0.19,-1.0,-5.01,-1.63,-1.88
3.336,-0.13,0.2,-0.99,-5.18,-4.37,-2.52
3.355,-0.12,0.22,-1.05,-8.93,-12.58,-5.59
3.374,-0.11,0.22,-1.1,-7.18,-19.18,-5.1
3.396,-0.16,0.19,-1.02,-0.93,-9.95,-0.61
3.415,-0.2,0.18,-1.0,1.39,-7.27,1.73
3.434,-0.22,0.18,-1.01,-0.32,-4.99,0.64
3.456,-0.2,0.2,-1.01,0.95,-1.82,-2.37
3.475,-0.16,0.22,-0.99,-1.01,-1.97,-5.44
3.494,-0.16,0.23,-1.02,0.18,-0.29,-5.11
3.516,-0.12,0.22,-1.01,2.11,-1.65,-4.64
3.535,-0.14,0.21,-0.98,-0.24,-4.64,-1.85
3.554,-0.18,0.19,-0.99,0.95,-1.48,0.84
3.577,-0.2,0.19,-0.98,1.57,-1.82,-0.4
3.595,-0.19,0.2,-0.95,1.33,-1.98,-3.37
3.615,-0.17,0.22,-1.01,0.34,-4.82,-5.74
3.637,-0.15,0.23,-1.03,-0.6,-9.76,-7.04
3.655,-0.15,0.22,-0.95,-1.16,-10.89,-5.63
3.675,-0.22,0.21,-0.94,-1.04,-9.22,-3.34
3.696,-0.19,0.2,-0.96,-3.22,-13.11,-4.21
3.72,-0.15,0.21,-1.01,-8.85,-17.73,-7.83
3.738,-0.15,0.21,-1.0,-4.55,-12.02,-5.02
3.756,-0.2,0.22,-0.96,0.92,-4.49,-1.28
3.774,-0.19,0.21,-1.0,-1.83,-3.63,-1.47
3.797,-0.18,0.21,-1.03,-1.57,-3.27,-1.62
3.816,-0.2,0.21,-0.99,1.91,-2.24,-1.39
3.835,-0.2,0.2,-0.9,6.24,-0.81,-1.79
3.857,-0.2,0.21,-0.95,3.8,-2.98,-2.81
3.876,-0.18,0.23,-1.0,-3.24,-7.8,-2.93
3.894,-0.22,0.23,-0.99,-1.82,-4.2,-1.42
3.917,-0.24,0.22,-0.98,-0.95,-1.89,-0.08
3.936,-0.22,0.21,-1.01,-2.46,3.02,0.14
3.954,-0.21,0.22,-1.0,-0.93,5.44,-2.5
3.977,-0.19,0.21,-1.05,0.14,5.21,-3.82
3.996,-0.16,0.2,-1.01,-0.93,4.63,-4.12
