timestamp,acce_x,acce_y,acce_z,gyro_x,gyro_y,gyro_z
0.001,0.16,-0.97,-0.16,-1.56,-0.43,2.34
0.003,0.17,-0.98,-0.18,-0.43,1.21,2.15
0.005,0.15,-0.97,-0.19,0.63,1.11,1.07
0.006,0.13,-0.98,-0.18,-0.31,1.97,0.49
0.007,0.16,-0.99,-0.17,-1.11,-1.62,2.05
0.009,0.16,-1.0,-0.17,0.31,-1.66,2.75
0.01,0.16,-0.99,-0.18,2.38,1.57,2.61
0.012,0.14,-0.97,-0.2,4.46,2.52,1.71
0.013,0.12,-0.98,-0.17,0.89,3.68,0.58
0.014,0.14,-0.98,-0.18,1.08,1.01,2.02
0.015,0.14,-0.97,-0.17,2.41,0.0,3.68
0.016,0.15,-0.97,-0.19,3.57,-2.15,3.83
0.017,0.13,-0.99,-0.17,3.63,1.08,1.91
0.019,0.14,-0.97,-0.17,3.05,-0.37,0.27
0.02,0.14,-0.96,-0.18,4.66,-2.34,1.91
0.021,0.14,-0.95,-0.17,-0.03,0.69,2.76
0.022,0.14,-0.98,-0.16,-1.27,0.55,2.29
0.023,0.14,-0.98,-0.17,0.82,1.15,0.64
0.024,0.13,-0.98,-0.23,1.15,2.35,0.09
0.026,0.11,-0.98,-0.19,-2.05,1.56,0.99
0.027,0.12,-1.01,-0.16,-5.69,-1.59,3.63
0.028,0.16,-1.01,-0.17,-1.28,-3.1,4.66
0.029,0.16,-0.97,-0.2,3.53,-1.28,1.94
0.03,0.15,-0.98,-0.18,2.23,2.24,-2.32
0.031,0.12,-1.0,-0.16,1.16,0.69,-3.79
0.032,0.13,-0.99,-0.17,3.22,-0.35,-1.1
0.033,0.14,-0.98,-0.2,4.4,0.89,2.0
0.034,0.15,-0.97,-0.18,2.75,2.5,1.27
0.035,0.13,-0.98,-0.19,3.54,0.79,-0.55
0.035,0.13,-0.98,-0.18,4.7,0.9,-0.29
0.036,0.13,-0.98,-0.17,3.04,0.5,1.68
0.037,0.15,-0.99,-0.18,1.18,0.02,5.25
0.038,0.13,-0.99,-0.16,-8.2,7.86,6.7
0.039,0.14,-1.01,-0.15,2.18,1.82,7.8
0.04,0.13,-1.05,-0.11,10.47,2.02,6.95
0.041,0.08,-1.12,-0.04,17.6,6.02,6.31
0.042,0.01,-1.23,0.06,32.23,1.88,7.5
0.043,-0.05,-1.25,0.06,64.02,-8.32,13.94
0.044,-0.01,-1.25,0.08,90.41,-16.53,26.96
0.044,0.02,-1.22,0.07,133.69,-20.69,44.99
0.045,-0.05,-1.28,0.19,157.05,-24.05,59.13
0.046,-0.08,-1.34,0.28,182.34,-35.04,64.98
0.047,-0.01,-1.24,0.24,224.44,-49.07,79.53
0.048,0.02,-1.19,0.17,263.51,-16.31,102.17
0.049,-0.04,-1.1,0.23,257.92,0.53,107.76
0.05,0.06,-0.97,0.1,264.61,-28.31,106.52
0.051,-0.02,-0.98,0.35,264.09,-36.92,93.83
0.051,-0.2,-1.04,0.67,234.24,-38.87,69.8
0.052,-0.09,-0.98,0.65,259.36,-74.24,61.07
0.053,-0.06,-0.91,0.61,287.39,-76.21,59.66
0.054,-0.09,-0.76,0.61,292.37,-56.75,46.15
0.055,-0.05,-0.56,0.5,286.27,-61.73,41.92
0.056,-0.16,-0.43,0.71,248.7,-55.15,31.92
0.056,-0.12,-0.4,0.82,204.67,-64.18,26.84
0.057,0.05,-0.32,0.71,203.48,-66.43,32.99
0.058,0.0,-0.22,0.72,173.54,-42.6,33.97
0.059,-0.07,-0.2,0.82,136.23,-38.15,24.34
0.06,0.01,-0.11,0.85,121.13,-50.06,17.25
0.06,0.11,-0.06,0.82,105.48,-57.66,23.91
0.061,0.1,-0.03,0.85,91.21,-27.85,17.95
0.062,0.1,0.0,0.83,76.63,-9.4,13.42
0.063,0.08,0.02,0.85,71.62,-13.88,8.29
0.064,0.09,0.04,0.86,59.57,-15.76,1.8
0.064,0.05,0.03,0.9,48.96,-19.86,-2.05
0.065,0.12,0.05,0.81,34.43,-18.44,-2.87
0.066,0.11,0.06,0.86,20.05,0.05,-2.34
0.067,0.02,0.0,1.02,-1.48,21.71,-5.36
0.068,0.02,-0.04,1.02,-3.59,12.79,-5.24
0.068,-0.0,-0.05,1.03,0.78,-2.18,-7.08
0.069,0.08,-0.04,1.04,2.27,-11.8,-2.92
0.07,0.1,-0.03,1.05,7.1,-5.15,-0.92
0.071,0.08,-0.05,1.08,8.75,6.4,-5.02
0.071,0.06,-0.01,1.02,13.16,10.81,-8.56
0.072,0.03,0.02,1.03,14.21,17.07,-11.97
0.073,-0.07,-0.01,1.05,6.49,24.69,-12.27
0.074,-0.04,-0.01,1.01,6.0,11.62,-9.13
0.074,-0.03,0.0,1.0,7.37,6.56,-4.24
0.075,-0.04,-0.0,0.96,1.3,16.4,-3.83
0.076,-0.06,0.01,1.0,-2.17,15.16,-3.8
0.076,-0.07,-0.02,1.0,-8.29,9.13,-5.02
0.077,-0.03,-0.02,1.02,-4.72,-1.45,-3.31
0.078,-0.04,-0.02,0.99,-3.66,-4.53,-0.69
0.079,0.04,-0.0,1.0,-1.16,-6.85,0.79
0.079,0.02,-0.01,1.01,-0.37,-4.55,-0.23
0.08,0.02,-0.02,1.03,-0.72,-1.24,-0.96
0.097,0.03,-0.02,1.0,-0.6,-3.65,-0.52
0.115,0.0,-0.03,1.03,-0.29,-0.46,-0.85
0.133,0.01,-0.02,1.01,1.69,-0.7,-0.29
0.157,0.01,-0.03,1.02,-1.07,0.32,-0.08
0.175,0.01,-0.02,1.02,-1.57,-1.37,-0.35
0.198,0.01,-0.01,1.03,-0.53,-4.78,1.07
0.216,0.02,-0.03,1.03,0.38,3.48,1.65
0.234,0.04,-0.02,1.03,-0.78,-0.95,1.76
0.258,0.03,-0.02,1.02,1.19,-1.77,1.3
0.276,0.01,-0.03,1.03,1.62,1.91,0.47
0.294,0.01,-0.03,1.02,1.27,-1.37,1.01
0.317,0.0,-0.04,1.02,2.7,1.25,1.36
0.335,-0.02,-0.05,1.03,4.93,3.59,1.89
0.353,0.0,-0.03,1.01,8.85,-4.6,4.44
0.377,0.02,-0.02,1.02,7.3,-1.8,4.2
0.395,0.02,-0.03,1.02,6.27,-2.18,4.18
0.413,0.04,0.01,1.0,7.68,-4.5,4.66
0.437,0.03,-0.01,1.02,2.55,-0.76,4.14
0.455,0.03,-0.02,1.03,0.98,0.03,2.78
0.478,0.03,-0.03,1.01,1.13,-1.63,2.02
0.496,0.06,-0.03,1.02,1.6,-2.23,2.27
0.514,0.05,-0.01,1.01,1.37,3.21,1.98
0.538,0.04,0.01,1.0,0.4,2.05,-0.58
0.556,0.02,-0.01,1.01,-1.91,0.11,-4.17
0.574,-0.02,-0.05,1.03,-4.98,-0.24,-6.67
0.597,0.01,-0.06,1.05,-6.76,-4.53,-5.94
0.615,0.01,-0.05,1.03,-4.38,-3.54,-4.58
0.638,0.01,-0.03,1.03,-3.13,0.15,-3.79
0.656,0.0,-0.03,1.01,-4.11,0.23,-2.21
0.674,0.02,-0.03,1.01,-3.22,-0.23,-1.04
0.697,0.02,-0.03,1.03,-3.53,2.72,-1.53
0.716,0.02,-0.02,1.02,-0.67,-0.27,-0.64
0.734,0.03,-0.02,1.01,2.76,-1.02,-0.35
0.757,0.04,-0.0,1.01,2.46,0.32,-0.75
0.775,0.04,0.01,0.98,2.82,1.13,-0.29
0.794,0.01,0.01,1.0,0.75,5.85,-1.83
0.816,-0.0,-0.01,1.0,-3.19,4.32,-2.38
0.834,0.02,-0.02,1.01,-4.52,-1.3,-0.09
0.858,0.02,-0.01,1.0,-4.67,4.66,1.59
0.876,0.02,-0.0,1.01,-8.11,5.45,1.74
0.894,0.0,-0.02,1.02,-8.79,2.26,-0.2
0.917,0.0,-0.05,1.04,-8.99,-3.77,-2.81
0.935,-0.0,-0.07,1.07,-6.87,-5.07,-2.15
0.958,0.02,-0.08,1.06,-6.37,-3.01,-0.53
0.976,0.01,-0.07,1.04,-0.46,-5.07,0.35
0.994,0.01,-0.07,1.05,1.15,-3.39,0.34
1.018,0.0,-0.08,1.02,-0.9,-2.37,0.17
1.036,0.0,-0.08,1.04,0.4,-0.24,0.73
1.054,0.01,-0.08,1.03,2.58,-0.84,1.83
1.077,0.03,-0.08,1.02,4.11,0.02,1.31
1.095,0.04,-0.04,1.0,5.57,-5.62,1.95
1.113,0.03,-0.06,1.01,4.31,-0.15,1.07
1.137,0.05,-0.06,1.01,2.29,-2.24,0.53
1.155,0.03,-0.05,1.02,3.02,-2.4,-0.56
1.178,0.02,-0.05,1.02,0.15,-1.66,-2.02
1.196,0.02,-0.07,1.02,0.78,-2.84,-2.44
1.215,0.02,-0.06,1.04,-0.52,-4.02,-3.85
1.237,0.03,-0.08,1.02,-1.95,-4.87,-3.04
1.255,0.03,-0.06,1.0,-1.85,-3.63,-2.4
1.273,0.03,-0.05,1.0,-3.62,0.0,-1.8
1.297,0.05,-0.05,0.99,-5.42,0.64,-1.76
1.315,0.06,-0.04,0.99,-5.33,-3.13,-2.21
1.338,0.06,-0.04,0.98,-6.12,-1.51,-2.92
1.356,0.05,-0.05,0.98,-7.1,4.09,-2.99
1.374,0.05,-0.05,0.98,-7.47,6.34,-3.5
1.397,0.03,-0.05,0.98,-7.1,9.79,-4.26
1.415,0.01,-0.06,0.98,-7.69,5.25,-5.05
1.438,0.0,-0.09,1.01,-10.0,6.09,-4.31
1.456,0.03,-0.09,1.03,-9.42,7.4,-2.84
1.474,0.02,-0.07,1.01,-7.21,7.68,-3.16
1.498,0.0,-0.09,1.03,-6.93,7.71,-4.69
1.516,-0.02,-0.1,1.06,-8.85,7.19,-6.69
1.534,-0.01,-0.14,1.07,-8.12,0.21,-3.92
1.557,0.01,-0.13,1.06,-1.45,-3.1,-2.18
1.575,0.01,-0.11,1.05,1.76,-0.46,-1.4
1.598,0.02,-0.09,1.01,-0.27,2.31,-1.56
1.616,0.01,-0.08,1.01,-1.4,2.46,-1.77
1.634,0.01,-0.1,1.0,-9.04,5.33,-2.21
1.657,-0.01,-0.1,1.03,-10.06,7.07,-2.66
1.675,-0.01,-0.1,1.0,-13.28,6.38,-2.9
1.693,0.0,-0.1,0.97,-9.94,4.2,-3.79
1.716,0.02,-0.09,0.95,-13.76,5.31,-4.24
1.734,0.01,-0.1,0.98,-24.46,7.22,-5.25
1.757,0.01,-0.11,0.98,-29.24,6.82,-5.01
1.775,0.01,-0.14,0.96,-27.66,-1.05,-3.27
1.793,-0.03,-0.16,0.99,-30.89,5.69,-4.64
1.816,-0.0,-0.2,1.02,-35.62,-2.43,-2.72
1.834,0.02,-0.21,1.01,-32.37,-12.52,-1.18
1.857,-0.01,-0.2,1.01,-27.82,0.27,-5.05
1.875,-0.03,-0.24,1.03,-29.25,6.79,-3.36
1.898,0.03,-0.26,1.03,-21.31,-2.35,-0.24
1.916,0.04,-0.23,0.98,-15.31,-11.04,-2.34
1.934,-0.02,-0.23,1.0,-19.33,2.61,-7.86
1.957,-0.01,-0.22,0.97,-19.98,3.73,-4.26
1.975,-0.0,-0.22,0.98,-19.95,3.51,-0.81
1.998,0.02,-0.25,0.97,-24.46,3.86,-1.16
2.016,0.03,-0.23,0.94,-21.91,6.61,-0.61
2.034,0.01,-0.24,0.98,-25.66,7.4,-3.66
2.057,-0.01,-0.27,0.97,-28.69,11.94,-6.46
2.075,0.01,-0.25,0.92,-25.88,0.53,-4.37
2.098,-0.02,-0.3,0.98,-30.79,0.7,-5.18
2.116,-0.01,-0.32,0.97,-32.96,-0.6,-5.57
2.134,0.01,-0.32,0.97,-27.83,-7.82,-4.32
2.157,-0.02,-0.35,0.96,-29.13,-2.87,-6.14
2.175,0.02,-0.34,0.93,-26.99,-4.56,-4.99
2.198,-0.01,-0.33,0.93,-27.3,-1.8,-3.86
2.22,-0.0,-0.37,0.92,-31.73,0.35,-2.47
2.233,0.02,-0.37,0.91,-32.85,-7.56,-1.08
2.256,0.01,-0.38,0.95,-33.56,-1.11,-0.58
2.274,0.0,-0.4,0.94,-35.77,3.82,-0.49
2.298,0.03,-0.39,0.92,-30.7,-7.91,0.15
2.315,0.06,-0.4,0.88,-32.92,-8.31,-3.13
2.333,0.07,-0.4,0.85,-34.66,-4.63,-4.18
2.356,0.05,-0.42,0.84,-43.59,5.45,-7.5
2.374,0.0,-0.45,0.88,-50.46,12.15,-10.98
2.397,0.01,-0.5,0.93,-54.46,8.53,-12.89
2.415,0.01,-0.51,0.87,-47.02,-2.47,-12.11
2.438,0.01,-0.5,0.84,-43.53,0.0,-13.15
2.456,0.03,-0.52,0.85,-47.1,-0.18,-12.03
2.474,0.0,-0.53,0.86,-46.58,4.37,-11.3
2.497,0.02,-0.53,0.81,-44.78,3.92,-8.64
2.515,-0.0,-0.55,0.87,-48.31,5.45,-8.41
2.538,0.03,-0.58,0.79,-49.11,-2.14,-8.92
2.556,0.05,-0.58,0.79,-48.66,-10.44,-11.6
2.574,0.04,-0.61,0.81,-56.35,-0.55,-11.33
2.597,0.04,-0.62,0.77,-54.24,6.96,-9.73
2.615,0.04,-0.67,0.78,-56.21,1.19,-10.06
2.638,0.07,-0.65,0.75,-52.21,-0.15,-13.95
2.656,0.09,-0.69,0.72,-45.36,-2.43,-13.42
2.674,0.04,-0.69,0.7,-60.14,5.33,-15.33
2.696,0.06,-0.7,0.68,-62.29,6.31,-17.05
2.714,0.06,-0.73,0.67,-64.47,4.55,-16.61
2.737,0.09,-0.71,0.59,-68.6,3.85,-16.82
2.755,0.15,-0.68,0.45,-74.09,0.99,-17.24
2.773,0.15,-0.68,0.39,-97.34,10.63,-24.99
2.796,0.16,-0.72,0.3,-125.92,7.45,-35.5
2.814,0.22,-0.73,0.23,-139.83,-1.24,-38.11
2.837,0.17,-0.73,-0.0,-182.05,26.41,-54.03
2.854,0.09,-0.84,0.19,-229.57,36.72,-66.15
2.877,0.18,-0.96,0.01,-252.99,-3.22,-73.01
2.895,0.05,-1.19,0.3,-275.24,8.81,-87.54
2.918,-0.0,-1.31,0.42,-267.45,0.82,-81.28
2.936,0.07,-1.24,0.18,-223.91,-14.92,-45.25
2.954,-0.0,-1.23,0.31,-211.83,34.53,-18.84
2.976,0.07,-1.24,0.2,-207.65,50.6,4.5
2.994,0.22,-1.29,0.22,-142.12,-18.38,32.37
3.017,0.31,-1.29,0.14,-88.31,-29.47,39.51
3.035,0.37,-1.19,-0.04,-45.51,-15.22,37.02
3.058,0.35,-1.08,-0.2,-18.0,6.0,22.09
3.076,0.15,-1.09,-0.1,-17.34,32.37,-4.55
3.094,0.03,-1.13,-0.09,-23.86,40.7,-20.5
3.117,0.02,-1.01,-0.22,-0.47,18.89,-15.76
3.135,-0.01,-1.0,-0.21,2.69,13.69,-6.6
3.158,0.05,-1.04,-0.13,-5.98,5.85,3.53
3.176,0.13,-1.03,-0.12,-0.85,-6.93,10.18
3.194,0.21,-0.98,-0.19,2.58,-8.5,11.68
3.217,0.2,-1.0,-0.15,0.18,-6.05,7.22
3.235,0.21,-1.01,-0.13,-1.47,-10.05,2.85
3.258,0.2,-0.96,-0.16,3.39,-3.42,0.84
3.276,0.18,-0.96,-0.12,-1.18,3.44,-0.26
3.294,0.17,-0.97,-0.12,0.87,-0.34,0.84
3.317,0.17,-0.95,-0.15,4.79,3.51,0.47
3.335,0.17,-0.94,-0.16,7.04,1.07,1.77
3.353,0.16,-0.95,-0.16,3.5,-0.52,1.79
3.377,0.15,-0.97,-0.13,2.9,-0.17,1.79
3.395,0.17,-0.96,-0.16,6.46,-3.66,3.6
3.418,0.15,-0.97,-0.16,6.24,-6.9,4.31
3.436,0.17,-0.98,-0.17,4.23,-3.56,3.04
3.454,0.17,-0.99,-0.14,0.67,5.31,1.27
3.478,0.15,-0.99,-0.16,1.25,2.95,1.44
3.496,0.15,-0.98,-0.15,1.94,0.76,0.66
3.514,0.16,-0.99,-0.15,2.09,-0.06,2.34
3.537,0.16,-1.0,-0.15,1.73,0.43,3.57
3.555,0.16,-1.0,-0.14,3.19,2.9,4.31
3.573,0.17,-0.97,-0.18,2.76,3.54,5.39
3.597,0.16,-0.98,-0.17,-1.11,4.85,3.01
3.615,0.14,-1.0,-0.11,-3.65,1.65,0.63
3.638,0.15,-1.0,-0.14,-1.42,0.35,0.47
3.656,0.14,-0.98,-0.15,3.91,0.08,1.4
3.674,0.15,-0.98,-0.16,3.18,-0.58,1.74
3.697,0.15,-0.96,-0.17,1.51,0.61,2.58
3.716,0.16,-0.98,-0.14,-2.87,2.02,2.78
3.734,0.15,-1.0,-0.11,-5.08,1.97,2.31
3.757,0.13,-1.03,-0.12,-4.79,2.7,2.52
3.775,0.16,-0.96,-0.17,4.35,1.88,5.04
3.798,0.14,-0.98,-0.15,1.48,5.86,4.81
3.816,0.16,-0.98,-0.17,-0.52,2.6,2.81
3.834,0.14,-0.99,-0.13,0.02,1.21,2.53
3.858,0.13,-0.99,-0.12,-3.83,6.6,1.71
3.876,0.18,-0.97,-0.18,0.47,1.79,2.95
3.894,0.15,-0.97,-0.18,0.23,4.76,1.44
3.917,0.15,-0.99,-0.15,0.64,5.98,-0.53
3.935,0.15,-0.99,-0.17,2.58,2.38,-0.15
3.953,0.13,-0.97,-0.16,0.37,5.85,-0.15
3.976,0.15,-0.98,-0.15,-0.06,-0.81,1.83
3.995,0.15,-0.99,-0.15,0.95,0.2,1.31
