timestamp,acce_x,acce_y,acce_z,gyro_x,gyro_y,gyro_z
0.0,0.14,-0.99,-0.12,3.45,1.04,1.48
0.002,0.13,-0.98,-0.12,3.42,0.2,2.29
0.003,0.13,-0.97,-0.11,4.63,1.53,2.64
0.005,0.15,-0.96,-0.14,3.6,0.37,2.0
0.006,0.13,-0.97,-0.13,2.58,-3.27,0.87
0.007,0.12,-0.98,-0.11,1.88,-2.29,1.53
0.008,0.13,-0.97,-0.13,1.88,-1.76,3.74
0.009,0.14,-0.96,-0.14,-1.98,0.58,3.02
0.011,0.14,-1.0,-0.12,-1.97,-2.14,1.6
0.012,0.14,-1.0,-0.09,0.03,-1.39,3.53
0.013,0.15,-0.98,-0.12,-0.26,4.02,2.46
0.014,0.15,-0.98,-0.14,-1.5,1.63,0.02
0.015,0.14,-1.0,-0.11,0.55,-0.17,-0.49
0.016,0.13,-1.02,-0.09,3.01,0.5,1.51
0.017,0.14,-1.01,-0.12,5.36,1.22,1.88
0.018,0.13,-1.02,-0.1,8.05,-1.74,2.64
0.019,0.14,-1.03,-0.09,11.04,-1.01,3.27
0.02,0.13,-1.04,-0.07,17.07,-2.27,4.52
0.021,0.14,-1.02,-0.1,20.81,0.96,6.15
0.022,0.16,-1.0,-0.14,19.51,6.53,4.82
0.023,0.13,-0.96,-0.16,14.17,6.4,4.64
0.024,0.12,-0.95,-0.13,7.74,4.96,4.82
0.025,0.12,-0.96,-0.09,3.33,4.67,4.95
0.026,0.11,-0.97,-0.06,4.84,5.62,6.0
0.027,0.12,-0.96,-0.07,4.05,3.07,6.98
0.028,0.13,-0.97,-0.07,5.39,-0.49,6.58
0.029,0.14,-0.98,-0.1,4.95,-0.32,4.85
0.03,0.14,-0.99,-0.11,1.44,0.96,1.51
0.031,0.13,-1.01,-0.08,2.26,0.89,-0.75
0.032,0.09,-1.04,-0.05,8.17,0.6,0.98
0.033,0.08,-1.04,-0.04,14.5,-0.47,5.97
0.034,0.08,-1.07,-0.03,23.47,-3.13,10.21
0.035,-0.01,-1.19,0.14,45.19,-22.18,10.78
0.036,-0.05,-1.29,0.23,88.21,-40.34,22.72
0.037,-0.0,-1.22,0.15,117.24,-4.29,40.23
0.038,-0.02,-1.21,0.14,135.82,11.48,47.47
0.039,-0.06,-1.25,0.25,167.79,-26.98,59.02
0.04,-0.02,-1.27,0.31,199.76,-38.79,65.04
0.041,0.03,-1.23,0.27,225.07,-14.03,77.65
0.042,0.03,-1.17,0.25,235.37,7.48,75.1
0.043,-0.08,-1.12,0.36,244.63,-35.68,71.71
0.044,0.03,-1.03,0.33,252.92,-51.8,65.48
0.044,0.07,-0.97,0.34,242.52,-33.39,54.21
0.045,0.03,-0.87,0.42,228.43,-28.21,46.81
0.046,-0.14,-0.81,0.56,231.33,-51.85,35.02
0.047,-0.17,-0.83,0.61,241.48,-83.8,36.12
0.048,-0.07,-0.67,0.64,227.39,-65.77,44.89
0.049,-0.02,-0.56,0.57,216.31,-48.03,46.46
0.049,-0.01,-0.48,0.74,198.02,-41.19,46.67
0.05,-0.03,-0.51,0.83,198.76,-53.4,41.69
0.051,0.04,-0.43,0.86,194.87,-53.56,36.9
0.052,0.1,-0.34,0.81,183.08,-25.16,24.37
0.053,0.01,-0.28,0.8,156.41,-20.23,15.95
0.053,-0.0,-0.19,0.86,127.6,-36.9,30.05
0.054,0.14,-0.11,0.86,113.95,3.74,25.13
0.055,0.15,-0.08,0.94,97.62,14.29,14.7
0.056,0.0,-0.04,0.93,93.13,2.52,6.32
0.057,0.03,-0.03,0.92,94.58,-3.34,5.18
0.057,0.08,0.05,0.84,75.37,4.7,2.72
0.058,-0.01,0.07,0.9,55.42,5.39,-0.41
0.059,0.02,0.09,0.84,45.79,-14.03,1.51
0.06,0.08,0.13,0.74,9.25,7.37,-1.13
0.06,0.04,0.09,0.89,-12.56,18.98,-2.18
0.061,-0.02,0.01,1.06,-6.95,-4.08,0.14
0.062,0.02,-0.03,1.01,2.23,-13.37,-4.0
0.063,0.04,-0.01,0.96,8.93,-13.77,-2.64
0.063,0.02,-0.02,1.0,1.77,-6.92,-1.57
0.064,0.02,-0.03,1.03,2.82,-13.42,4.81
0.065,0.07,-0.03,1.06,6.06,-5.04,2.29
0.066,0.06,-0.05,1.07,12.6,-2.76,-4.79
0.066,0.03,0.01,1.09,18.53,-0.18,-6.89
0.067,0.02,-0.01,1.09,5.83,-0.44,-6.21
0.068,-0.02,0.01,1.03,20.58,-9.53,-4.75
0.069,0.02,0.04,1.02,12.41,-10.95,-2.76
0.069,0.03,0.01,1.0,7.63,-3.86,-3.02
0.07,-0.0,0.03,1.0,1.4,-3.27,-2.75
0.071,-0.01,0.04,0.97,-1.39,-1.21,-0.5
0.071,0.0,0.06,0.98,-1.37,-4.46,0.34
0.075,0.05,0.07,0.96,-2.15,-10.43,-1.19
0.099,0.06,0.07,0.99,-7.95,-8.96,-2.64
0.117,0.06,0.05,0.98,-6.85,-5.66,-4.18
0.136,0.03,0.02,1.0,-8.82,-7.34,-3.54
0.159,0.04,0.02,1.01,-8.47,-1.91,-1.98
0.178,0.04,0.02,1.03,-6.38,-4.75,-1.07
0.196,0.05,0.04,1.0,-4.12,-5.39,-1.05
0.215,0.04,0.03,1.01,-7.47,-4.26,-1.82
0.238,0.03,0.02,1.04,-6.98,-5.16,-0.6
0.256,0.04,0.02,1.03,-6.37,-3.28,0.46
0.275,0.04,0.0,1.06,-4.7,-1.3,0.4
0.299,0.04,-0.01,1.05,-2.43,-6.6,-0.46
0.317,0.04,-0.01,1.03,1.74,-6.78,2.56
0.335,0.04,-0.03,1.05,0.53,0.85,4.89
0.356,0.03,-0.01,1.03,4.02,2.15,6.02
0.376,0.04,0.0,1.02,2.76,-2.17,5.91
0.396,0.08,0.01,1.0,0.78,-0.03,3.76
0.416,0.07,-0.02,1.05,2.05,-3.15,2.7
0.44,0.08,-0.01,1.03,3.77,-3.24,1.88
0.458,0.07,0.02,1.0,1.6,-2.32,1.37
0.476,0.07,-0.02,1.05,1.48,-4.67,0.41
0.5,0.07,-0.01,1.04,5.16,-6.87,1.18
0.518,0.09,0.01,1.02,1.48,-3.51,0.56
0.536,0.08,0.01,1.02,1.33,0.06,-0.81
0.556,0.07,0.02,1.01,0.46,-5.68,-0.31
0.58,0.08,0.0,1.04,0.35,-2.96,-1.44
0.598,0.08,-0.01,1.02,0.31,-2.7,-1.73
0.617,0.08,0.01,1.03,1.1,-5.05,-1.33
0.635,0.07,0.01,1.0,0.23,-0.11,-1.68
0.658,0.06,-0.02,1.03,-0.52,-3.31,-1.1
0.677,0.08,-0.01,1.01,4.72,-4.23,-0.15
0.695,0.09,0.02,0.99,4.92,2.9,-0.43
0.716,0.08,0.02,0.98,2.46,2.05,-1.34
0.736,0.08,0.02,1.0,1.44,-3.77,-1.33
0.76,0.08,0.02,1.0,2.6,-1.86,-1.16
0.778,0.06,0.03,0.99,0.69,2.05,-0.32
0.796,0.06,0.01,1.03,-1.07,0.56,-1.56
0.82,0.05,-0.0,1.04,0.38,-6.31,-1.88
0.838,0.07,-0.01,1.03,1.3,-4.5,-0.6
0.856,0.08,0.0,1.04,1.1,1.98,-0.15
0.876,0.08,-0.02,1.06,1.94,-2.53,0.61
0.9,0.09,-0.01,1.07,3.51,-5.07,-1.3
0.918,0.1,-0.01,1.07,5.25,-2.26,-1.4
0.936,0.09,0.01,1.03,5.16,2.47,-0.11
0.956,0.08,0.02,1.02,2.4,6.75,-0.08
0.976,0.09,0.02,1.01,1.39,-1.59,-0.69
1.0,0.07,0.02,1.0,1.07,-0.7,-1.97
1.018,0.08,0.01,1.0,-0.98,0.6,-1.4
1.037,0.08,-0.0,1.01,-0.14,-2.15,-1.56
1.055,0.08,0.01,1.01,0.23,-0.72,-0.67
1.078,0.08,0.01,1.02,2.18,-3.97,-1.07
1.097,0.09,0.01,1.0,1.47,-1.95,-1.25
1.115,0.08,0.01,1.01,-2.26,0.24,-1.11
1.139,0.07,-0.0,1.03,-0.24,-2.43,-0.79
1.157,0.08,0.0,1.02,1.56,0.27,-0.34
1.176,0.07,0.02,1.01,-1.6,2.15,-0.92
1.2,0.07,0.0,1.02,-0.15,-3.73,-0.08
1.218,0.07,0.02,1.01,0.09,-0.47,-0.08
1.237,0.08,0.01,1.0,-4.17,0.18,0.52
1.256,0.09,0.01,1.01,-4.6,0.03,-0.44
1.28,0.1,0.01,1.01,-5.24,0.41,-0.73
1.298,0.09,0.02,1.0,-7.95,3.01,-1.71
1.316,0.07,0.0,1.02,-8.81,-2.64,-2.09
1.335,0.1,-0.01,1.01,-8.61,-1.33,-1.66
1.358,0.1,-0.01,1.0,-13.59,6.61,-1.5
1.377,0.1,-0.02,1.0,-14.52,7.19,-3.28
1.395,0.08,-0.02,0.99,-16.67,4.21,-4.46
1.419,0.07,-0.06,1.05,-12.78,-4.84,-2.4
1.437,0.09,-0.05,1.02,-6.92,2.09,-2.82
1.455,0.08,-0.03,1.01,-9.94,5.76,-2.05
1.479,0.08,-0.04,1.01,-10.18,1.3,-1.97
1.497,0.1,-0.04,1.02,-10.0,0.76,-3.08
1.515,0.09,-0.03,1.0,-12.05,5.48,-3.53
1.539,0.07,-0.04,1.03,-12.61,5.73,-3.16
1.557,0.08,-0.06,1.0,-13.66,3.69,-4.02
1.575,0.06,-0.06,1.03,-17.07,2.05,-2.96
1.599,0.06,-0.06,1.01,-17.33,5.45,-3.3
1.617,0.06,-0.09,1.04,-13.13,3.4,-2.53
1.636,0.06,-0.08,0.99,-13.21,6.15,-1.54
1.659,0.06,-0.08,0.99,-20.06,2.6,-0.46
1.677,0.07,-0.09,0.99,-20.43,5.97,-1.22
1.696,0.06,-0.1,1.05,-24.76,9.63,-2.47
1.719,0.04,-0.13,1.04,-12.84,3.57,-0.29
1.737,0.06,-0.15,1.04,-5.39,-4.64,-0.89
1.756,0.08,-0.12,1.0,-5.05,3.85,-2.41
1.779,0.06,-0.11,1.01,-11.42,7.74,-2.46
1.798,0.04,-0.13,1.01,-9.85,2.82,-1.53
1.816,0.06,-0.11,0.98,-11.16,0.38,-0.82
1.839,0.05,-0.11,0.98,-13.5,2.15,-0.56
1.858,0.05,-0.14,0.99,-13.16,-1.97,-0.6
1.876,0.06,-0.13,0.99,-12.44,-1.08,-1.13
1.899,0.06,-0.13,0.96,-16.08,1.6,-1.48
1.917,0.05,-0.17,1.02,-13.22,-0.02,-2.61
1.936,0.03,-0.16,1.03,-9.19,-5.33,-0.34
1.959,0.06,-0.15,0.97,-12.0,0.75,-0.03
1.978,0.05,-0.17,1.02,-16.27,-1.66,0.35
1.996,0.07,-0.17,0.98,-18.56,-3.97,0.41
2.019,0.06,-0.18,0.99,-23.45,-2.32,-0.43
2.038,0.08,-0.19,1.01,-20.98,0.53,-0.73
2.056,0.06,-0.19,0.99,-20.05,7.18,-0.49
2.079,0.05,-0.19,0.97,-23.34,4.43,-0.4
2.097,0.05,-0.19,0.95,-28.06,-2.78,0.35
2.116,0.06,-0.21,0.94,-35.01,-2.72,0.11
2.139,0.05,-0.25,0.99,-35.3,-2.61,-1.07
2.157,0.05,-0.27,1.02,-29.04,-7.28,-1.77
2.176,0.07,-0.25,0.97,-28.31,-4.82,-1.65
2.199,0.08,-0.26,0.98,-32.5,-0.9,-1.01
2.217,0.09,-0.29,0.99,-34.92,1.85,-2.34
2.236,0.08,-0.32,0.98,-35.37,1.88,-4.72
2.259,0.06,-0.34,1.0,-31.15,-2.92,-3.94
2.278,0.07,-0.32,0.97,-29.1,1.51,-2.93
2.296,0.07,-0.31,0.93,-32.6,7.73,-2.7
2.319,0.11,-0.32,0.86,-32.5,13.66,-4.61
2.337,0.07,-0.36,0.92,-36.73,8.0,-6.0
2.356,0.03,-0.35,0.97,-38.24,1.4,-5.65
2.379,0.06,-0.37,0.91,-35.94,6.03,-5.83
2.397,0.06,-0.38,0.9,-38.17,2.89,-5.04
2.416,0.06,-0.42,0.96,-34.5,-3.22,-5.66
2.439,0.07,-0.44,0.96,-26.95,-1.15,-4.4
2.458,0.07,-0.43,0.92,-27.13,7.47,-4.84
2.476,0.06,-0.42,0.88,-30.38,4.69,-4.05
2.499,0.07,-0.41,0.87,-38.47,6.12,-4.75
2.517,0.07,-0.44,0.91,-41.48,4.52,-4.9
2.536,0.08,-0.46,0.9,-38.73,11.94,-6.95
2.559,0.07,-0.47,0.86,-42.09,12.47,-9.11
2.577,0.05,-0.48,0.87,-45.25,6.92,-9.6
2.596,0.07,-0.48,0.84,-51.22,1.33,-9.83
2.619,0.09,-0.49,0.8,-59.31,9.31,-10.73
2.638,0.08,-0.53,0.82,-66.44,6.55,-11.04
2.656,0.07,-0.57,0.84,-67.57,8.26,-14.05
2.679,0.03,-0.6,0.84,-61.16,5.25,-14.15
2.697,0.03,-0.6,0.78,-64.02,3.04,-11.91
2.716,0.05,-0.6,0.75,-69.3,9.19,-7.92
2.739,0.04,-0.62,0.73,-76.53,10.7,-3.97
2.757,0.06,-0.62,0.68,-84.78,14.03,-2.87
2.775,0.1,-0.65,0.63,-96.23,17.36,-10.9
2.799,0.06,-0.66,0.59,-107.59,17.27,-17.45
2.817,0.1,-0.73,0.61,-112.47,11.36,-16.79
2.835,0.1,-0.76,0.6,-115.1,18.53,-19.95
2.858,0.06,-0.8,0.64,-111.98,11.5,-23.77
2.876,0.09,-0.79,0.5,-121.15,16.38,-29.59
2.899,0.08,-0.82,0.42,-131.01,18.44,-29.53
2.918,0.11,-0.85,0.4,-141.63,23.16,-30.55
2.936,0.14,-0.86,0.31,-153.21,16.43,-34.66
2.959,0.15,-0.89,0.25,-167.94,21.15,-44.12
2.977,0.13,-0.96,0.27,-177.28,14.81,-52.61
2.995,0.11,-1.01,0.29,-166.4,-1.37,-52.0
3.018,0.09,-0.98,0.21,-181.02,13.77,-49.65
3.036,0.03,-1.05,0.15,-182.61,-0.32,-40.05
3.059,0.08,-1.03,0.03,-194.7,-2.38,-23.01
3.078,0.15,-1.09,-0.11,-218.43,24.23,-13.62
3.095,0.1,-1.13,-0.12,-253.16,60.15,-17.33
3.118,0.02,-1.29,0.03,-218.38,43.24,-7.79
3.137,0.15,-1.26,-0.1,-198.58,61.07,-2.38
3.155,-0.04,-1.37,0.02,-97.28,31.88,-0.9
3.178,0.14,-1.3,0.08,-24.82,-43.27,12.29
3.196,0.25,-1.16,-0.15,8.17,-14.52,3.44
3.22,0.12,-1.1,-0.18,27.08,-20.75,2.4
3.238,0.08,-1.05,-0.22,54.15,-49.39,13.89
3.256,0.12,-0.97,-0.31,40.15,-24.53,15.97
3.279,0.08,-0.96,-0.19,34.23,-19.74,15.92
3.297,0.15,-0.95,-0.21,32.43,-27.77,19.51
3.316,0.19,-0.93,-0.23,11.13,-3.51,12.43
3.339,0.17,-0.96,-0.17,8.24,-0.31,6.67
3.358,0.16,-0.97,-0.14,13.34,-1.57,3.56
3.376,0.13,-0.95,-0.16,14.12,-2.32,3.6
3.399,0.14,-0.94,-0.21,10.27,-0.46,3.62
3.417,0.14,-0.97,-0.2,3.82,5.02,-0.37
3.436,0.11,-0.98,-0.18,4.32,-1.54,-0.17
3.46,0.12,-0.99,-0.2,5.37,-2.66,0.85
3.478,0.12,-0.98,-0.22,0.66,2.72,0.38
3.496,0.11,-0.98,-0.2,-1.94,0.76,-1.36
3.52,0.11,-1.0,-0.18,2.58,-3.28,-0.79
3.538,0.12,-0.99,-0.19,3.3,0.53,-0.84
3.556,0.15,-1.02,-0.21,6.61,2.79,0.44
3.575,0.16,-0.94,-0.26,0.53,6.08,-2.67
3.598,0.12,-0.99,-0.18,-2.34,-1.36,-1.97
3.617,0.11,-1.02,-0.12,7.76,-2.27,2.0
3.635,0.16,-0.97,-0.23,8.84,7.5,2.95
3.659,0.15,-0.9,-0.26,-3.68,4.34,-2.61
3.677,0.12,-0.99,-0.13,-2.41,-4.98,-3.05
3.695,0.14,-0.99,-0.17,1.08,5.62,-1.68
3.719,0.12,-0.97,-0.19,1.18,1.83,-0.44
3.737,0.16,-0.98,-0.19,2.34,-0.78,0.15
3.756,0.15,-0.97,-0.18,0.61,5.39,-0.32
3.779,0.13,-0.99,-0.17,2.44,0.78,1.94
3.797,0.13,-0.99,-0.19,1.51,2.34,1.56
3.816,0.12,-0.98,-0.2,-1.05,5.08,2.89
3.839,0.11,-1.0,-0.21,-1.21,-0.32,5.88
3.858,0.11,-0.99,-0.19,-1.88,-3.63,7.6
3.876,0.12,-0.99,-0.17,0.26,-2.79,6.37
3.9,0.16,-0.98,-0.17,2.12,0.92,3.05
3.918,0.16,-0.96,-0.17,1.73,4.15,-1.34
3.936,0.13,-0.98,-0.16,2.93,2.5,-2.56
3.955,0.12,-0.97,-0.17,3.11,4.27,-0.75
3.979,0.14,-0.98,-0.2,2.17,5.34,-0.14
