timestamp,acce_x,acce_y,acce_z,gyro_x,gyro_y,gyro_z
0.0,0.13,0.21,1.0,1.3,2.11,-0.21
0.001,0.12,0.2,0.98,0.78,0.21,-0.47
0.002,0.12,0.19,0.99,0.49,-0.27,-0.32
0.003,0.12,0.19,0.98,2.53,-0.61,-0.55
0.004,0.12,0.2,0.96,2.35,0.61,1.02
0.005,0.11,0.22,0.96,2.2,-0.32,0.66
0.006,0.11,0.2,0.98,2.03,-2.12,1.08
0.007,0.12,0.21,0.97,1.37,-1.51,1.44
0.007,0.12,0.2,0.97,0.08,-0.99,0.41
0.008,0.13,0.2,0.98,0.85,-2.31,0.34
0.009,0.12,0.2,0.97,0.89,-3.33,1.08
0.01,0.14,0.19,0.97,2.24,-2.53,1.73
0.011,0.14,0.21,0.95,2.78,-1.34,0.79
0.012,0.14,0.22,0.97,2.12,-1.79,-0.67
0.012,0.13,0.22,0.98,2.21,-1.04,-0.34
0.013,0.15,0.2,0.97,0.26,0.61,-0.03
0.014,0.14,0.2,0.98,1.33,0.96,0.37
0.015,0.14,0.2,0.97,0.89,-0.79,-0.85
0.016,0.14,0.18,0.99,1.79,0.23,-0.24
0.016,0.13,0.2,0.98,3.68,1.48,0.23
0.017,0.13,0.21,0.97,2.85,1.76,-0.24
0.018,0.12,0.21,0.96,1.08,1.73,0.53
0.019,0.13,0.2,0.96,1.76,2.2,0.02
0.02,0.12,0.2,0.98,1.69,1.85,-0.29
0.021,0.12,0.2,0.97,1.51,0.98,-0.05
0.022,0.12,0.21,0.96,1.56,-1.59,0.4
0.022,0.12,0.2,0.97,1.36,0.12,0.2
0.023,0.12,0.21,0.97,1.11,1.16,0.61
0.024,0.12,0.22,0.96,-0.34,-0.87,0.92
0.025,0.13,0.2,0.98,0.02,1.05,0.79
0.026,0.12,0.2,0.98,0.52,-0.12,0.2
0.026,0.14,0.19,0.98,1.07,0.5,-0.26
0.027,0.12,0.19,0.99,3.34,0.06,0.58
0.028,0.13,0.2,0.99,2.75,-0.53,0.5
0.029,0.12,0.21,0.98,2.27,1.08,0.76
0.029,0.11,0.21,0.95,1.05,-0.03,1.02
0.03,0.13,0.2,0.97,0.72,-0.58,1.01
0.031,0.12,0.21,0.96,0.43,-0.08,0.84
0.032,0.13,0.2,0.98,0.26,-1.39,0.26
0.033,0.13,0.19,0.97,0.72,-0.5,0.56
0.033,0.11,0.19,0.97,0.23,-1.83,0.18
0.034,0.12,0.19,0.98,0.41,-1.76,0.78
0.035,0.13,0.19,0.96,0.95,0.37,0.98
0.035,0.13,0.2,0.97,1.54,-0.89,0.73
0.036,0.13,0.2,0.96,0.78,-0.72,0.81
0.037,0.14,0.2,0.96,0.89,-1.47,1.07
0.038,0.14,0.19,0.96,1.95,-1.24,-0.11
0.038,0.13,0.2,0.96,1.89,-2.17,0.26
0.039,0.14,0.19,0.96,1.47,-2.21,0.05
0.04,0.15,0.21,0.93,0.09,-0.75,0.58
0.041,0.16,0.21,0.93,-0.5,0.31,1.22
0.041,0.21,0.19,0.88,-1.39,-4.67,3.16
0.042,0.07,0.16,0.92,-1.18,-3.02,3.27
0.043,0.08,0.19,0.9,-3.44,-10.85,2.26
0.043,0.11,0.18,0.86,-0.31,-10.06,4.32
0.044,0.07,0.14,0.82,-1.97,-3.8,7.42
0.045,0.08,0.15,0.83,-4.0,-3.47,9.56
0.045,0.06,0.13,0.84,-4.43,0.06,12.73
0.046,0.08,0.12,0.84,-5.42,-3.88,14.34
0.047,0.08,0.11,0.82,-4.63,-3.45,18.55
0.048,0.08,0.1,0.78,-2.89,0.35,23.08
0.048,0.07,0.15,0.76,-4.64,-0.17,25.91
0.049,0.1,0.15,0.72,-9.1,0.44,28.38
0.05,0.12,0.14,0.73,-17.1,-1.48,30.43
0.05,0.11,0.19,0.78,-22.66,0.63,31.28
0.051,0.13,0.19,0.77,-28.79,-7.45,28.34
0.052,0.17,0.13,0.8,-34.46,-9.05,26.55
0.053,0.17,0.1,0.84,-33.92,-6.53,31.95
0.053,0.19,0.14,0.86,-32.11,3.19,40.17
0.054,0.26,0.14,0.8,-30.46,14.47,44.96
0.055,0.16,0.11,0.88,-30.66,1.5,41.82
0.055,0.14,0.04,0.87,-27.05,9.33,32.46
0.056,0.12,-0.0,0.88,-26.84,-2.89,24.11
0.057,0.06,0.0,0.98,-20.67,-10.84,18.12
0.058,0.05,-0.05,0.94,-13.69,-20.26,16.46
0.058,0.01,-0.08,0.99,-14.24,-26.0,10.95
0.059,0.2,-0.0,0.94,-16.44,-29.22,7.94
0.06,0.22,0.03,0.96,-19.66,-35.57,3.53
0.061,0.26,-0.01,1.0,-19.73,-43.19,7.86
0.061,0.38,0.06,1.02,-27.42,-12.61,15.11
0.062,0.33,0.03,1.07,-27.95,11.5,25.16
0.063,0.33,-0.02,0.98,-36.73,35.21,24.17
0.064,0.34,-0.04,1.15,-32.63,42.44,17.11
0.064,0.26,-0.04,1.15,-34.15,52.93,10.72
0.065,-0.07,-0.1,0.99,-2.44,-1.04,1.62
0.066,0.0,-0.08,0.98,-1.54,-4.17,0.64
0.067,-0.01,-0.08,0.99,-2.52,-3.11,1.21
0.084,0.02,-0.11,1.01,-1.91,-2.0,1.82
0.102,0.02,-0.09,1.02,0.34,0.93,0.46
0.121,0.0,-0.08,1.01,-0.82,0.14,0.26
0.144,0.01,-0.11,1.02,3.98,0.69,0.21
0.161,0.0,-0.07,0.99,2.17,1.45,-0.96
0.184,-0.0,-0.07,0.99,0.55,-0.12,0.7
0.203,0.01,-0.09,1.0,0.41,0.12,1.01
0.221,0.01,-0.08,0.99,0.44,-0.23,-0.67
0.244,-0.03,-0.11,1.03,1.57,-3.71,-0.27
0.262,0.02,-0.09,0.98,3.6,-4.02,-0.18
0.281,0.0,-0.07,0.97,1.89,-3.33,-0.23
0.299,0.01,-0.09,0.96,1.91,-3.68,0.11
0.323,0.01,-0.09,0.98,2.64,-2.66,1.15
0.341,0.0,-0.07,0.96,1.19,-1.8,1.22
0.36,0.02,-0.08,0.97,-0.18,-0.82,1.3
0.383,0.01,-0.09,0.97,0.2,0.99,1.24
0.401,-0.02,-0.07,0.97,-0.27,-0.67,1.15
0.424,-0.01,-0.08,0.99,0.15,-1.65,2.14
0.442,0.01,-0.07,0.98,-1.11,2.15,1.3
0.461,0.01,-0.09,1.0,0.31,5.47,1.82
0.481,0.03,-0.08,1.0,-0.49,3.89,1.42
0.504,0.03,-0.1,0.99,-1.44,3.21,-0.64
0.523,0.01,-0.1,1.02,-0.98,3.07,-0.34
0.541,0.02,-0.11,1.01,0.2,3.3,-1.8
0.559,-0.01,-0.11,1.01,2.18,1.33,-1.86
0.583,0.02,-0.09,1.0,2.81,1.57,-0.23
0.601,0.01,-0.09,0.99,2.75,1.25,-0.66
0.62,-0.0,-0.08,0.98,2.46,0.76,-0.98
0.644,-0.02,-0.1,0.8,0.56,-5.63,-5.98
0.662,0.04,-0.08,1.03,0.4,-0.98,-3.66
0.68,0.04,-0.13,0.99,5.37,6.64,-3.54
0.704,-0.01,-0.12,0.97,7.5,-1.07,-4.5
0.722,-0.0,-0.08,0.95,4.43,-3.66,-3.77
0.74,0.03,-0.07,0.98,1.15,2.11,-4.58
0.764,-0.01,-0.1,1.0,0.98,4.23,-5.04
0.782,-0.01,-0.11,1.0,3.65,3.98,-4.2
0.801,-0.01,-0.09,0.95,1.73,0.18,-3.5
0.819,-0.0,-0.09,0.99,1.21,2.73,-2.95
0.843,-0.0,-0.08,0.99,0.84,3.25,-1.39
0.861,-0.02,-0.09,1.0,2.58,3.22,-0.56
0.88,0.0,-0.07,0.98,0.03,-0.58,-0.75
0.903,0.02,-0.07,0.98,-3.98,-1.83,-0.82
0.921,-0.01,-0.09,1.02,-4.46,-1.85,-0.24
0.94,0.02,-0.11,1.05,-1.01,-2.66,-1.07
0.963,0.03,-0.1,1.04,2.66,-0.67,-2.32
0.981,-0.0,-0.07,1.01,1.18,-3.05,-3.36
1.0,-0.01,-0.08,1.02,-0.14,-3.42,-3.21
1.023,-0.01,-0.13,1.05,3.79,-2.53,-1.37
1.042,0.01,-0.11,1.03,7.83,-1.47,-1.62
1.06,0.0,-0.08,1.02,7.3,0.26,-3.18
1.084,-0.02,-0.13,1.05,11.07,-1.24,-2.29
1.102,-0.0,-0.1,1.04,16.99,-2.44,-3.18
1.12,-0.0,-0.05,1.0,15.83,0.96,-3.37
1.143,0.01,-0.03,0.98,11.51,1.16,-2.23
1.162,-0.0,-0.04,1.01,9.31,2.72,-1.4
1.18,-0.05,-0.06,1.06,11.51,0.35,0.08
1.204,-0.02,-0.02,1.05,10.4,-4.76,1.89
1.222,0.03,-0.01,1.06,6.38,-1.01,3.91
1.241,-0.02,-0.03,1.12,3.56,0.5,2.92
1.264,-0.0,-0.05,1.16,4.4,-2.02,4.84
1.283,0.02,-0.05,1.22,5.71,-3.65,7.18
1.301,0.06,-0.01,1.23,7.54,-6.84,6.99
1.32,0.05,0.02,1.2,5.76,0.35,2.92
1.344,0.04,-0.02,1.18,3.71,-5.01,0.44
1.362,0.02,-0.14,1.31,17.47,-12.73,1.05
1.38,0.06,-0.05,1.24,30.66,-6.89,-0.15
1.404,0.05,0.01,1.13,24.23,-7.24,-3.4
1.422,0.06,0.12,1.03,11.86,-9.53,-8.89
1.44,-0.02,0.02,1.03,-4.52,-8.78,-13.21
1.464,-0.07,-0.16,1.1,5.01,-17.24,-8.29
1.482,-0.08,-0.19,1.15,30.0,-18.78,0.6
1.5,-0.06,-0.06,1.08,35.83,-25.95,6.5
1.524,0.03,-0.0,1.03,29.91,-26.76,6.7
1.542,0.12,0.01,0.99,21.69,-10.34,5.92
1.56,0.04,-0.02,1.02,18.78,-7.92,2.92
1.584,0.04,0.05,0.96,9.42,-10.72,1.34
1.602,0.13,0.08,0.89,-7.6,-7.88,3.48
1.621,0.09,0.08,0.9,-20.27,-0.61,2.2
1.644,-0.05,-0.08,1.04,-9.54,-10.84,8.06
1.662,0.08,-0.08,1.06,6.81,-14.72,17.04
1.681,0.11,-0.06,1.08,16.85,-17.82,15.8
1.704,0.09,-0.0,1.03,16.31,-26.84,11.53
1.722,0.15,0.08,0.98,6.93,-20.69,13.6
1.741,0.09,-0.01,0.73,-3.89,-18.53,9.73
1.765,0.15,-0.1,1.07,9.82,-20.81,10.66
1.783,0.14,-0.04,1.05,25.94,-21.18,8.43
1.801,0.19,0.11,0.95,17.8,-15.94,13.56
1.824,0.18,0.11,0.94,2.89,-11.36,8.11
1.843,0.15,0.06,0.96,-4.43,-16.26,-4.58
1.861,0.11,-0.07,1.03,6.85,-18.02,-1.15
1.88,0.1,-0.08,1.06,30.03,-16.12,10.35
1.903,0.17,0.09,0.93,30.75,-7.98,16.44
1.921,0.14,0.11,0.94,13.45,-4.93,13.45
1.94,0.13,0.03,0.98,9.77,-16.17,2.0
1.963,0.18,0.01,1.01,15.54,-14.17,3.94
1.982,0.19,0.1,1.01,15.16,0.03,11.57
2.0,0.17,0.11,0.92,10.12,3.79,9.24
2.021,0.07,0.09,0.95,7.54,-28.34,-16.6
2.044,0.16,0.11,0.94,4.5,-33.62,-16.0
2.062,0.22,0.07,0.92,4.34,-15.76,-6.98
2.081,0.19,0.12,0.92,4.34,-6.4,2.34
2.101,0.23,0.09,0.92,-2.56,-4.76,3.71
2.124,0.21,0.04,0.96,2.14,6.58,0.0
2.143,0.27,-0.03,0.83,4.78,5.92,2.66
2.161,0.19,0.04,0.99,11.97,2.12,-0.09
2.185,0.17,0.08,0.94,14.92,-12.09,-12.56
2.203,0.21,0.11,0.89,12.93,-8.21,-13.71
2.221,0.21,0.15,0.86,5.73,9.88,-1.34
2.241,0.14,0.16,0.84,-6.72,16.93,6.15
2.264,0.11,0.05,0.91,-7.15,9.18,7.04
2.281,0.15,0.06,0.91,-1.31,6.21,6.44
2.301,0.18,0.1,0.88,-2.11,3.63,7.31
2.321,0.24,0.02,0.92,2.63,5.57,-0.95
2.341,0.14,0.06,0.89,7.91,4.98,-3.95
2.361,0.12,0.08,0.86,1.94,2.44,-5.74
2.381,0.14,0.05,0.89,-0.81,-3.4,-6.9
2.404,0.17,0.02,0.93,5.34,1.6,-5.18
2.421,0.12,0.07,0.91,9.98,-4.4,-6.12
2.444,0.15,0.09,0.87,3.22,-13.59,-12.09
2.463,0.15,0.07,0.88,-2.34,-8.31,-10.46
2.481,0.18,0.03,0.93,3.24,-3.56,-7.15
2.499,0.12,0.01,0.95,12.84,-4.81,-7.44
2.523,0.15,0.04,0.94,18.34,-5.94,-5.85
2.541,0.15,0.08,0.9,18.55,-8.82,-9.02
2.56,0.2,0.14,0.86,13.65,-3.04,-4.18
2.583,0.22,0.14,0.87,5.18,6.72,1.42
2.602,0.19,0.12,0.92,3.79,9.21,-1.1
2.621,0.17,0.11,0.93,6.99,-2.05,-8.2
2.645,0.18,0.14,0.9,9.13,-5.48,-10.05
2.663,0.19,0.14,0.89,4.55,-6.27,-8.55
2.681,0.2,0.12,0.88,3.15,-4.37,-7.42
2.7,0.21,0.11,0.92,5.13,-0.08,-5.42
2.723,0.17,0.12,0.93,9.02,3.24,1.79
2.742,0.22,0.11,0.93,11.5,1.15,1.33
2.761,0.22,0.15,0.92,10.63,4.23,-1.13
2.784,0.24,0.14,0.91,5.02,8.38,-1.98
2.801,0.21,0.13,0.94,1.47,13.15,-1.25
2.825,0.16,0.14,0.96,1.44,6.75,-2.31
2.841,0.16,0.16,0.94,-2.89,0.21,-2.7
2.864,0.21,0.13,0.97,-7.34,1.85,0.27
2.881,0.19,0.1,1.02,-5.42,1.45,-3.01
2.904,0.17,0.08,1.03,-2.05,-3.28,-8.49
2.923,0.17,0.07,1.03,1.95,-6.27,-8.98
2.941,0.17,0.09,1.0,3.47,-6.92,-7.19
2.959,0.18,0.1,0.99,1.57,0.56,-1.16
2.981,0.18,0.09,1.01,2.27,1.62,-0.46
3.001,0.18,0.11,1.01,3.76,0.12,-1.76
3.021,0.17,0.13,1.0,5.92,1.18,-1.95
3.041,0.19,0.14,0.98,5.05,0.46,-0.9
3.061,0.2,0.13,0.98,7.6,2.55,-2.18
3.081,0.17,0.16,0.97,7.97,0.31,-1.16
3.101,0.17,0.19,0.95,3.16,-3.77,-3.04
3.124,0.21,0.16,0.94,0.26,-0.79,-2.9
3.143,0.2,0.14,0.96,1.91,-2.15,-2.7
3.161,0.19,0.16,0.98,2.85,-2.79,-3.63
3.18,0.19,0.16,0.97,1.66,-4.96,-5.07
3.203,0.18,0.13,1.0,3.95,1.86,-2.12
3.221,0.17,0.13,0.99,4.11,-0.27,-3.11
3.245,0.17,0.13,0.99,4.34,-4.18,-4.52
3.263,0.17,0.11,0.98,4.67,-1.08,-0.24
3.281,0.17,0.13,0.95,5.69,-0.81,0.99
3.301,0.18,0.17,0.95,4.37,0.08,2.14
3.319,0.21,0.18,0.96,2.79,2.09,1.92
3.343,0.21,0.16,0.96,5.92,4.61,1.71
3.362,0.2,0.18,0.94,6.7,4.66,1.02
3.38,0.18,0.19,0.95,4.06,3.05,-0.58
3.401,0.17,0.19,0.95,2.64,3.86,0.85
3.419,0.15,0.17,0.97,1.28,2.21,2.5
3.443,0.19,0.15,0.98,2.89,1.56,0.18
3.462,0.19,0.15,0.99,3.59,0.92,-0.05
3.481,0.18,0.17,0.98,3.34,1.07,0.73
3.499,0.17,0.17,0.99,2.9,3.24,0.89
3.523,0.16,0.15,1.0,2.72,2.63,1.22
3.542,0.16,0.15,1.0,3.95,-0.49,-0.43
3.56,0.15,0.16,0.99,3.86,-0.06,0.14
3.581,0.14,0.16,0.97,3.25,-1.77,0.14
3.601,0.16,0.16,0.98,2.02,-1.65,0.58
3.621,0.16,0.15,0.99,2.46,-1.56,0.67
3.641,0.16,0.15,0.99,3.51,-3.85,0.41
3.661,0.18,0.15,0.99,3.54,-2.99,1.8
3.681,0.2,0.15,0.98,4.53,0.34,1.89
3.699,0.2,0.18,0.96,4.69,1.94,2.56
3.723,0.18,0.19,0.97,2.72,3.62,1.04
3.742,0.17,0.17,0.97,2.9,4.0,0.99
3.76,0.19,0.18,0.96,3.08,7.27,0.46
3.784,0.17,0.17,0.96,5.33,5.1,0.53
3.803,0.16,0.18,0.96,3.69,2.32,-1.33
3.821,0.17,0.17,0.95,2.7,-0.2,0.12
3.841,0.17,0.17,0.96,0.11,-3.68,0.52
3.861,0.18,0.17,0.97,1.5,0.0,2.43
3.879,0.18,0.18,0.97,0.2,0.44,2.31
3.903,0.18,0.19,0.96,-1.42,-3.54,-1.39
3.921,0.2,0.18,0.98,-2.0,-2.17,-1.79
3.94,0.16,0.16,0.99,-0.79,-1.56,-0.78
3.963,0.18,0.16,1.0,0.08,-2.26,-1.69
3.982,0.17,0.14,0.99,-0.08,-1.47,-2.6
