timestamp,acce_x,acce_y,acce_z,gyro_x,gyro_y,gyro_z
0.001,-0.03,0.04,0.94,-11.54,19.44,-6.79
0.003,-0.0,0.03,0.95,-16.2,21.56,-6.15
0.004,-0.02,-0.0,0.99,-14.4,5.89,-15.73
0.006,-0.05,-0.01,0.99,-10.2,-9.8,-19.65
0.007,-0.04,-0.01,0.98,-14.69,-4.99,-13.65
0.008,-0.02,-0.01,1.01,-18.63,9.37,-7.65
0.01,-0.02,-0.04,1.07,-15.11,7.65,-8.5
0.011,-0.02,-0.05,1.09,-9.39,-7.31,-11.59
0.013,0.01,-0.04,1.06,-8.11,-10.92,-11.42
0.014,-0.01,-0.05,1.09,-9.21,-4.09,-7.24
0.015,-0.01,-0.06,1.1,-6.46,2.12,-2.72
0.016,0.0,-0.06,1.1,-3.18,5.97,0.08
0.018,0.02,-0.07,1.14,-0.18,0.18,-1.98
0.019,0.02,-0.08,1.13,5.56,-5.39,-2.56
0.02,0.03,-0.06,1.1,8.72,-3.6,-1.4
0.021,0.04,-0.02,1.05,10.46,2.18,0.21
0.022,0.03,-0.02,1.04,6.72,4.44,0.15
0.023,0.03,-0.02,1.03,6.14,3.8,0.24
0.024,0.03,-0.04,1.06,6.21,-1.59,-5.65
0.025,0.02,-0.03,1.05,13.71,-7.71,-3.13
0.027,0.03,0.0,0.99,10.75,3.53,-1.97
0.028,0.01,-0.0,0.99,6.66,4.23,-0.35
0.029,0.03,0.01,0.97,5.53,-0.73,3.07
0.03,0.04,-0.01,0.98,0.24,3.36,1.39
0.031,0.0,-0.0,1.01,1.25,2.85,2.41
0.032,0.04,-0.01,1.0,1.01,1.36,0.95
0.033,0.02,-0.01,1.02,1.07,-0.76,-0.24
0.034,0.04,0.03,0.98,0.14,1.71,2.06
0.035,0.04,0.01,0.99,-2.84,5.62,3.65
0.036,0.03,0.02,0.99,-3.15,7.59,4.41
0.037,0.05,-0.01,1.01,-7.39,5.68,2.26
0.038,0.04,-0.05,1.07,-2.6,-3.71,-0.95
0.038,0.02,-0.03,1.04,3.01,-2.35,-0.79
0.039,0.04,-0.03,1.03,1.53,2.93,0.4
0.04,0.03,-0.02,1.03,3.56,2.35,0.15
0.041,0.04,-0.0,1.0,0.6,5.18,-0.14
0.042,0.03,-0.01,1.03,0.14,-0.41,0.34
0.043,0.02,0.0,1.0,0.79,1.04,0.99
0.044,0.02,0.0,1.02,-4.82,3.34,0.26
0.045,-0.0,-0.02,0.98,-0.05,-8.96,0.64
0.046,-0.03,-0.01,1.0,-0.23,-7.05,0.03
0.047,-0.08,-0.03,1.01,-2.31,-3.71,5.08
0.047,-0.11,-0.04,1.01,-2.37,-4.5,7.39
0.048,-0.13,-0.07,1.04,0.46,-12.37,3.18
0.049,-0.18,-0.08,1.05,7.66,-25.3,0.17
0.05,-0.21,-0.06,1.0,11.5,-25.18,2.93
0.051,-0.29,-0.03,0.94,10.21,-15.27,11.27
0.052,-0.32,-0.03,0.89,4.75,-11.28,19.92
0.053,-0.31,-0.03,0.93,2.46,-19.95,27.28
0.053,-0.18,-0.0,0.94,1.28,-24.79,41.63
0.054,0.01,0.01,1.0,-1.45,-10.72,47.79
0.055,0.11,0.02,1.08,1.88,-9.45,43.39
0.056,0.13,0.04,1.07,9.33,-19.51,37.73
0.057,0.2,0.09,1.02,5.88,-12.96,41.28
0.058,0.27,0.1,1.08,0.89,-1.11,41.47
0.059,0.3,0.09,1.13,3.24,0.7,36.46
0.059,0.3,0.07,1.1,3.13,-4.78,25.1
0.06,0.24,0.04,1.09,4.24,-9.85,17.28
0.061,0.14,0.02,1.08,2.63,-5.24,15.28
0.062,0.04,-0.05,1.11,3.36,0.78,19.15
0.063,0.02,-0.1,1.09,10.63,2.9,22.44
0.063,0.04,-0.07,1.05,13.6,6.05,24.96
0.064,0.05,-0.04,1.02,12.34,11.11,26.38
0.065,0.03,-0.0,1.06,10.02,7.34,29.05
0.066,0.04,-0.02,0.93,15.24,7.37,29.71
0.066,0.12,0.02,0.92,11.4,8.56,34.21
0.067,0.2,0.07,0.92,3.82,12.79,37.73
0.068,0.29,0.06,0.94,1.5,10.18,29.74
0.069,0.28,0.05,0.95,0.17,-4.82,21.79
0.07,0.3,0.05,0.94,2.24,-10.63,21.77
0.07,0.35,0.07,0.94,-0.61,-3.18,15.62
0.071,0.32,0.04,0.96,-2.52,-8.23,7.36
0.072,0.26,0.01,0.98,-10.6,-19.02,2.96
0.073,0.2,-0.05,1.09,-17.69,-22.85,3.68
0.073,0.17,-0.09,1.14,-9.44,-24.9,6.89
0.074,0.18,-0.11,1.16,1.37,-21.92,5.19
0.075,0.14,-0.11,1.14,5.98,-18.69,-0.18
0.076,0.09,-0.08,1.13,9.37,-21.79,1.25
0.076,0.12,-0.07,1.07,10.14,-16.06,5.56
0.077,0.15,-0.06,1.06,9.85,-9.74,7.8
0.078,0.2,-0.04,1.03,11.47,-9.21,7.39
0.079,0.17,-0.02,1.02,10.95,-13.07,4.05
0.08,0.18,0.04,1.01,1.37,3.18,-2.06
0.081,0.14,0.05,1.03,0.21,-0.08,-1.74
0.081,0.16,0.05,1.04,-3.51,6.09,-0.31
0.098,0.14,0.01,1.1,-2.29,5.05,-0.32
0.116,0.14,-0.0,1.13,2.92,-1.04,-0.23
0.134,0.13,0.0,1.1,3.89,-1.07,-0.15
0.158,0.13,-0.01,1.1,5.08,0.64,1.47
0.176,0.14,-0.01,1.07,6.38,2.18,3.76
0.194,0.14,0.01,1.05,5.44,3.42,5.79
0.218,0.19,-0.04,1.05,10.58,-7.3,4.85
0.236,0.16,0.01,1.04,5.77,-10.17,4.03
0.254,0.18,0.02,1.03,1.89,-6.64,4.4
0.277,0.18,0.01,1.02,2.29,-4.78,5.68
0.295,0.19,0.02,1.02,3.95,-5.51,5.69
0.314,0.19,0.04,1.01,2.79,-7.51,4.41
0.337,0.17,0.02,1.02,-0.55,-10.4,5.02
0.355,0.16,-0.01,1.07,-1.34,-14.21,8.2
0.378,0.2,-0.03,1.07,4.27,-16.17,14.99
0.397,0.3,-0.04,1.08,9.13,-4.11,7.95
0.415,0.22,-0.05,1.08,19.88,-12.81,-1.19
0.438,0.23,0.0,1.02,19.07,-9.16,-4.26
0.456,0.24,0.0,1.05,15.02,-0.6,-1.39
0.474,0.27,0.01,1.06,17.73,2.5,-1.45
0.497,0.29,0.01,1.05,21.92,-2.31,-7.82
0.515,0.3,0.05,1.03,22.87,-5.88,-9.54
0.539,0.33,0.07,1.0,19.5,-2.21,-10.75
0.556,0.34,0.06,1.0,17.66,0.58,-13.47
0.574,0.35,0.05,1.02,17.05,-3.76,-20.23
0.598,0.32,0.07,1.0,19.21,-11.24,-24.31
0.616,0.28,0.09,0.97,17.21,-11.82,-24.69
0.638,0.29,0.11,0.93,14.03,-9.16,-23.56
0.656,0.29,0.11,0.92,10.02,-10.2,-21.76
0.674,0.3,0.11,0.92,6.99,-11.79,-20.78
0.697,0.31,0.11,0.92,4.58,-12.26,-24.87
0.715,0.28,0.12,0.92,3.54,-14.61,-26.9
0.739,0.27,0.14,0.92,0.27,-13.01,-23.76
0.757,0.29,0.14,0.9,-3.97,-4.78,-18.93
0.775,0.3,0.13,0.91,-5.02,-4.73,-20.46
0.798,0.32,0.13,0.92,-3.27,-12.93,-28.23
0.816,0.3,0.15,0.9,-4.23,-21.62,-35.18
0.839,0.28,0.14,0.88,-8.7,-22.99,-35.48
0.857,0.28,0.12,0.92,-14.6,-14.7,-34.87
0.874,0.29,0.07,0.97,-14.72,-7.88,-37.1
0.898,0.26,0.05,1.0,-11.08,-10.87,-44.81
0.915,0.22,0.07,0.98,-7.21,-15.37,-46.69
0.938,0.22,0.1,0.96,-7.5,-11.05,-45.05
0.956,0.25,0.1,0.92,-7.16,-5.62,-42.47
0.974,0.23,0.09,0.94,-12.79,-2.58,-43.1
0.998,0.21,0.07,0.97,-12.98,-1.65,-44.24
1.015,0.2,0.07,0.99,-9.39,0.32,-43.33
1.039,0.18,0.09,0.96,-4.66,7.04,-38.89
1.056,0.16,0.11,0.92,-2.92,9.37,-34.52
1.075,0.18,0.11,0.91,-3.31,8.14,-32.44
1.098,0.18,0.11,0.91,-9.3,8.5,-31.89
1.116,0.17,0.09,0.94,-12.44,7.86,-34.5
1.134,0.17,0.06,0.97,-10.21,7.42,-34.47
1.157,0.17,0.08,0.94,-7.73,10.84,-33.27
1.175,0.16,0.08,0.94,-6.52,11.71,-31.36
1.198,0.16,0.11,0.89,-4.99,10.85,-30.37
1.216,0.16,0.11,0.88,-12.0,11.37,-29.83
1.234,0.14,0.1,0.9,-18.5,7.47,-28.99
1.257,0.14,0.08,0.94,-18.92,4.49,-28.35
1.275,0.12,0.07,0.95,-19.5,4.75,-26.5
1.298,0.08,0.06,0.94,-19.51,10.72,-23.73
1.316,0.06,0.06,0.95,-19.54,9.18,-17.59
1.334,0.07,0.05,0.97,-19.73,-0.2,-14.05
1.357,0.09,0.04,0.96,-20.12,-6.08,-11.68
1.375,0.15,0.05,0.95,-23.15,-4.98,-13.19
1.398,0.14,0.02,0.98,-28.95,-5.82,-15.6
1.416,0.09,-0.02,1.02,-30.29,-0.46,-12.7
1.434,0.07,-0.02,1.03,-26.11,13.11,-6.84
1.457,0.06,-0.01,1.03,-24.56,13.04,-4.82
1.475,0.06,-0.01,1.01,-24.72,-1.79,-3.39
1.498,0.11,-0.02,1.0,-27.3,-8.05,-5.16
1.516,0.11,-0.03,0.96,-28.87,2.49,-2.82
1.534,0.1,-0.02,0.96,-34.92,16.84,-0.93
1.557,0.08,-0.05,0.98,-37.33,11.53,0.92
1.575,0.1,-0.06,0.96,-36.29,1.85,0.93
1.598,0.12,-0.09,0.97,-43.5,4.79,-2.05
1.616,0.06,-0.14,1.02,-43.94,2.7,-2.95
1.634,0.06,-0.13,1.02,-41.42,1.92,0.81
1.657,0.1,-0.16,1.0,-39.15,7.88,4.78
1.675,0.14,-0.16,0.98,-39.73,15.5,2.02
1.699,0.1,-0.18,0.99,-41.02,14.96,-2.81
1.717,0.05,-0.2,1.01,-39.85,16.11,-3.53
1.734,0.01,-0.21,1.01,-34.63,18.99,1.71
1.757,-0.02,-0.22,1.02,-29.91,5.98,1.66
1.775,0.01,-0.21,0.98,-27.04,-5.82,7.89
1.799,0.06,-0.22,0.96,-33.65,1.8,8.29
1.817,-0.02,-0.22,1.11,-35.62,1.62,10.06
1.835,-0.03,-0.29,1.08,-29.89,-4.66,11.27
1.858,-0.03,-0.29,1.05,-29.01,-10.67,15.66
1.875,-0.01,-0.28,1.03,-35.37,-4.4,17.92
1.898,-0.07,-0.31,1.05,-37.15,-6.21,19.36
1.916,-0.09,-0.33,1.09,-37.31,-19.42,24.43
1.934,-0.03,-0.35,1.11,-34.66,-28.14,32.08
1.957,0.05,-0.37,1.12,-28.6,-25.25,39.51
1.975,0.12,-0.39,1.14,-21.31,-15.53,37.94
1.998,0.14,-0.41,1.13,-13.27,-15.13,30.46
2.016,0.1,-0.38,1.12,-7.97,-18.38,27.1
2.038,0.1,-0.35,1.07,-7.5,-14.26,33.57
2.057,0.16,-0.38,1.09,-9.63,-17.82,32.99
2.075,0.23,-0.41,1.1,-2.96,-11.92,26.47
2.097,0.18,-0.37,1.03,-0.56,-0.09,22.7
2.115,0.08,-0.33,1.03,-3.24,-4.92,28.7
2.138,0.14,-0.34,1.0,-3.34,-3.25,38.18
2.156,0.17,-0.37,1.03,-4.92,1.54,36.89
2.174,0.16,-0.39,1.04,2.5,-1.5,37.82
2.198,-0.05,-0.42,0.96,-10.56,-14.02,40.46
2.215,0.08,-0.39,1.02,6.03,7.13,38.02
2.239,0.08,-0.42,1.03,-1.51,13.85,39.01
2.257,0.04,-0.45,1.08,6.35,4.32,40.18
2.275,0.06,-0.43,1.03,5.89,6.24,41.59
2.298,0.08,-0.43,1.04,6.37,2.43,47.15
2.316,0.12,-0.42,1.02,9.85,4.72,47.62
2.335,0.08,-0.42,1.04,3.77,3.34,41.53
2.358,0.06,-0.41,1.06,2.79,-7.97,44.23
2.376,0.16,-0.41,1.09,2.96,-8.52,49.27
2.394,0.3,-0.44,1.13,1.13,-0.49,41.85
2.417,0.25,-0.44,1.16,8.17,7.77,32.47
2.435,0.18,-0.38,1.08,2.21,34.79,26.37
2.459,0.06,-0.42,1.17,1.21,32.29,22.89
2.477,0.04,-0.42,1.19,9.63,20.53,27.97
2.495,0.08,-0.41,1.16,9.65,26.95,28.55
2.518,0.07,-0.41,1.12,13.3,19.42,31.8
2.536,0.09,-0.42,0.99,12.52,19.56,22.55
2.554,0.04,-0.4,1.08,5.77,7.56,28.34
2.577,0.03,-0.45,1.13,10.92,0.09,31.45
2.595,-0.01,-0.44,1.12,10.31,-4.76,37.85
2.618,0.07,-0.39,1.1,8.92,6.37,43.69
2.637,0.13,-0.42,1.12,9.15,-2.61,42.34
2.655,0.19,-0.42,1.09,15.28,-9.27,37.18
2.678,0.16,-0.38,1.05,9.05,-5.73,30.29
2.696,0.14,-0.34,1.03,4.87,-1.01,31.54
2.714,0.09,-0.41,1.12,7.73,-6.02,35.31
2.737,0.11,-0.44,1.16,32.32,-12.69,38.38
2.755,0.11,-0.38,1.1,48.14,-16.37,39.47
2.778,0.06,-0.31,1.16,46.58,-33.97,46.02
2.796,0.13,-0.31,0.94,44.35,-28.17,39.73
2.814,0.1,-0.29,0.98,27.31,-6.53,37.89
2.837,0.13,-0.3,0.94,23.74,7.73,38.34
2.855,0.16,-0.3,1.01,29.51,2.11,32.4
2.878,0.12,-0.28,1.0,41.6,-12.89,22.24
2.896,0.17,-0.23,0.91,46.27,-13.62,18.29
2.914,0.15,-0.18,0.86,40.12,-7.42,17.91
2.937,0.16,-0.15,0.84,40.02,2.12,14.6
2.955,0.14,-0.15,0.79,32.18,1.57,5.89
2.979,0.11,-0.14,0.87,26.08,-1.89,-0.31
2.997,0.05,-0.18,0.92,26.96,-13.36,-4.31
3.015,0.08,-0.16,0.9,25.21,-21.77,-5.53
3.037,0.11,-0.16,0.92,22.92,-19.19,-13.51
3.055,0.05,-0.16,0.9,19.28,-30.82,-18.38
3.078,0.07,-0.16,0.85,9.25,-8.32,-16.31
3.096,0.06,-0.15,0.85,-2.66,20.79,-19.71
3.115,-0.06,-0.17,0.9,-1.57,-3.31,-22.44
3.137,0.02,-0.14,0.96,7.34,-13.07,-7.69
3.155,0.12,-0.09,0.92,15.95,26.53,-1.76
3.178,0.1,-0.13,0.92,23.19,22.56,-23.66
3.196,0.08,-0.1,0.84,30.87,-24.61,-29.95
3.214,0.11,-0.03,0.85,13.73,-12.15,-24.2
3.237,0.08,-0.06,0.89,5.45,14.31,-22.2
3.255,0.08,-0.08,0.97,10.23,6.29,-24.75
3.278,0.1,-0.06,0.9,12.23,1.83,-34.53
3.296,0.07,-0.05,0.94,5.73,-7.31,-37.11
3.314,0.09,-0.05,0.94,0.23,-6.21,-32.82
3.337,0.07,-0.08,0.97,-4.4,2.49,-33.76
3.355,0.06,-0.12,1.01,2.31,-7.25,-36.81
3.378,0.05,-0.1,0.99,4.37,-22.27,-38.69
3.396,0.09,-0.11,0.97,-2.0,-13.66,-36.47
3.414,0.06,-0.11,1.02,2.47,-10.08,-32.47
3.437,0.13,-0.1,1.0,10.53,-0.49,-35.82
3.455,0.09,-0.12,0.97,17.07,-12.5,-42.26
3.478,0.04,-0.09,1.0,16.53,-20.52,-46.41
3.496,0.05,-0.08,0.94,13.01,-9.6,-39.02
3.514,0.06,-0.09,1.0,7.95,4.79,-36.73
3.537,0.02,-0.1,1.03,16.15,-13.57,-39.66
3.555,0.02,-0.04,0.99,21.24,-26.69,-38.47
3.578,0.02,-0.01,0.94,14.03,-23.01,-29.83
3.596,0.01,-0.01,0.93,8.64,-14.14,-19.33
3.619,0.11,-0.02,0.95,2.95,4.12,-14.82
3.637,0.1,-0.05,0.99,3.95,1.51,-28.98
3.655,0.05,-0.03,0.99,10.21,-14.64,-31.6
3.678,0.07,0.01,0.95,4.5,-0.96,-23.79
3.696,0.08,0.0,0.97,-2.81,10.2,-15.69
3.714,0.1,-0.05,1.06,-1.79,2.49,-23.69
3.737,0.09,-0.06,1.04,7.48,-10.69,-29.13
3.755,0.08,-0.04,0.99,7.54,-0.89,-27.15
3.778,0.06,-0.02,0.98,1.62,7.59,-21.34
3.796,0.06,-0.0,0.97,-3.3,6.49,-18.61
3.814,0.07,-0.03,1.0,-6.32,7.85,-19.82
3.837,0.04,-0.04,1.0,-1.47,4.18,-20.27
3.855,0.04,-0.04,1.0,-3.28,6.58,-22.53
3.878,-0.0,-0.05,0.99,-2.12,2.93,-18.41
3.896,-0.03,-0.06,0.99,-8.12,8.27,-13.16
3.915,-0.02,-0.06,1.01,-10.02,15.39,-4.84
3.937,-0.04,-0.08,1.03,-8.47,12.23,-1.21
3.955,0.0,-0.08,1.03,-5.45,9.77,-0.9
3.979,0.02,-0.09,1.05,-2.61,0.67,-6.66
