timestamp,acce_x,acce_y,acce_z,gyro_x,gyro_y,gyro_z
0.002,0.28,-0.12,1.02,-0.75,5.27,-9.13
0.011,0.28,-0.12,1.02,1.36,11.19,-6.34
0.02,0.3,-0.17,1.0,6.24,6.23,-0.06
0.028,0.28,-0.18,0.99,7.54,1.47,7.54
0.035,0.24,-0.18,1.03,6.11,-1.42,9.22
0.043,0.19,-0.14,1.04,-0.18,2.03,4.61
0.048,0.19,-0.16,1.03,-2.63,0.67,-2.14
0.053,0.25,-0.17,1.02,-3.74,5.47,-2.47
0.057,0.26,-0.12,1.06,-10.58,8.03,0.4
0.061,0.29,-0.1,1.08,-22.99,14.0,0.79
0.066,0.26,-0.14,1.01,-15.54,3.42,6.15
0.07,0.27,-0.18,0.97,-9.16,1.44,9.73
0.074,0.24,-0.2,0.97,-4.41,10.11,11.37
0.079,0.18,-0.15,1.02,-4.78,15.95,8.09
0.083,0.17,-0.17,1.07,-7.51,17.04,3.33
0.086,0.19,-0.2,1.01,-8.35,9.15,4.46
0.088,0.18,-0.23,0.99,-4.12,-2.69,5.94
0.091,0.21,-0.23,0.92,-1.07,-1.04,5.8
0.095,0.19,-0.22,0.95,2.14,7.15,5.54
0.098,0.18,-0.21,1.01,3.79,15.8,4.61
0.101,0.17,-0.21,1.03,2.31,17.1,2.96
0.104,0.15,-0.2,1.06,2.11,11.21,1.34
0.107,0.16,-0.18,1.07,0.7,6.61,-0.67
0.111,0.15,-0.16,1.06,0.4,3.69,-0.17
0.113,0.13,-0.18,1.01,-1.95,-0.24,-0.56
0.116,0.18,-0.21,1.0,1.02,-0.79,-0.85
0.118,0.16,-0.19,1.02,3.66,1.39,-0.06
0.12,0.15,-0.17,1.06,2.95,-0.23,-0.84
0.122,0.18,-0.2,1.03,0.5,1.16,0.53
0.124,0.16,-0.26,1.06,1.6,-1.73,-1.1
0.126,0.13,-0.23,1.05,-6.38,7.71,-8.78
0.128,0.17,-0.18,1.05,-6.5,12.21,-10.76
0.13,0.22,-0.16,1.04,-5.56,13.15,-6.76
0.132,0.14,-0.15,1.01,-5.25,8.38,-5.27
0.133,0.11,-0.12,0.98,-3.11,-4.7,-4.43
0.135,0.14,-0.13,0.96,0.03,-2.4,-4.99
0.137,0.15,-0.14,0.98,-3.91,7.73,-4.35
0.139,0.12,-0.16,0.91,-4.76,8.47,-2.09
0.141,0.1,-0.16,0.91,-3.89,3.16,-2.03
0.142,0.14,-0.2,0.92,-1.98,5.05,-1.15
0.144,0.14,-0.22,0.89,1.56,10.31,-0.21
0.146,0.06,-0.21,0.9,4.96,9.95,-3.36
0.149,0.09,-0.21,0.93,4.79,12.31,-7.89
0.151,0.1,-0.2,0.95,4.12,17.5,-8.81
0.152,0.1,-0.17,0.99,1.88,20.55,-8.52
0.154,0.12,-0.15,0.97,-0.03,20.09,-5.92
0.156,0.11,-0.17,1.0,1.92,7.71,-0.23
0.158,0.08,-0.14,1.01,1.3,7.4,-1.79
0.16,0.11,-0.14,1.02,0.89,8.0,0.76
0.162,0.08,-0.14,0.98,-0.95,5.22,2.34
0.164,0.09,-0.17,0.98,-0.95,2.32,2.12
0.166,0.1,-0.18,0.93,0.87,7.53,4.4
0.168,0.04,-0.17,1.07,1.31,12.84,-0.32
0.169,0.04,-0.18,1.04,-1.24,13.16,-0.81
0.171,0.04,-0.17,1.07,-3.13,-3.28,0.35
0.173,0.07,-0.2,1.01,-3.37,-10.52,0.06
0.175,0.1,-0.21,0.99,0.06,-8.63,0.46
0.177,0.07,-0.2,0.98,1.82,6.21,-2.18
0.179,0.08,-0.18,1.03,4.09,8.08,-5.08
0.181,0.1,-0.17,1.03,2.23,3.27,-2.95
0.183,0.09,-0.16,1.07,-2.03,-0.34,-2.05
0.185,0.12,-0.17,1.02,-3.68,-0.21,-0.7
0.187,0.11,-0.16,1.02,-2.79,-3.45,-0.56
0.189,0.13,-0.15,0.97,-3.63,0.18,0.4
0.191,0.11,-0.15,0.98,-0.18,-1.82,1.07
0.192,0.09,-0.18,0.97,3.08,3.8,0.35
0.194,0.01,-0.18,1.03,3.62,9.73,-4.52
0.196,-0.02,-0.17,1.1,-0.41,11.83,-10.03
0.198,0.02,-0.16,1.03,-4.79,3.44,-9.16
0.199,0.02,-0.16,1.01,-3.79,-10.0,-6.27
0.201,0.08,-0.15,0.98,-2.5,-6.79,-6.55
0.203,0.0,-0.15,1.0,2.03,1.1,-8.35
0.205,-0.05,-0.16,1.05,-2.24,5.95,-16.17
0.207,-0.02,-0.14,1.02,-3.6,0.61,-17.59
0.209,-0.01,-0.17,1.01,-4.11,-6.76,-17.88
0.21,-0.0,-0.17,0.99,-3.59,0.44,-18.55
0.212,-0.04,-0.16,1.02,-2.27,-0.09,-21.13
0.214,-0.09,-0.14,1.05,-6.53,-4.09,-25.8
0.216,-0.11,-0.14,1.09,-19.65,-6.21,-32.67
0.218,-0.05,-0.16,0.98,-22.18,-23.62,-36.6
0.226,-0.0,-0.19,0.82,-11.39,-35.92,-34.99
0.249,0.02,-0.19,0.87,-2.82,-18.79,-38.4
0.268,0.01,-0.2,0.82,7.21,-3.73,-38.69
0.287,-0.01,-0.19,0.86,17.31,3.63,-41.45
0.307,-0.05,-0.14,0.92,17.88,5.24,-45.34
0.327,0.04,-0.11,0.93,13.76,5.98,-51.37
0.347,0.07,-0.09,0.95,10.4,0.5,-46.26
0.37,0.09,-0.07,0.92,10.0,-0.14,-43.69
0.388,0.07,-0.08,0.88,9.65,-11.13,-43.76
0.407,0.08,-0.07,0.86,12.92,-17.5,-43.63
0.427,0.07,-0.1,0.86,15.6,-2.78,-48.96
0.447,0.08,-0.1,0.9,15.19,6.63,-50.18
0.467,0.06,-0.06,0.9,10.75,0.72,-46.81
0.49,0.06,-0.05,0.86,14.29,-19.01,-43.08
0.508,0.05,-0.07,0.87,16.78,-26.84,-45.48
0.528,0.09,-0.08,0.84,14.49,-4.89,-50.35
0.547,0.04,-0.03,0.87,15.21,-4.0,-51.44
0.567,0.04,0.03,0.87,11.54,-9.66,-50.79
0.586,0.06,0.02,0.87,12.09,-28.47,-44.92
0.607,0.07,-0.05,0.93,8.98,-22.27,-45.11
0.627,0.04,-0.05,0.92,-1.33,-12.61,-52.24
0.645,0.05,-0.02,0.79,-3.3,-26.44,-66.38
0.669,0.09,0.04,0.81,1.79,-38.55,-73.33
0.688,0.27,0.05,0.7,8.66,-18.58,-69.66
0.717,0.29,0.01,0.81,15.65,-17.63,-65.13
0.727,0.26,0.05,0.82,15.27,-14.78,-63.6
0.747,0.23,0.1,0.79,24.84,-44.64,-67.33
0.767,0.39,0.12,0.8,29.85,-31.98,-71.57
0.787,0.47,0.09,0.87,24.61,-5.68,-62.79
0.806,0.41,0.12,0.84,23.07,-8.08,-53.48
0.83,0.44,0.19,0.86,26.82,-27.25,-48.72
0.848,0.51,0.23,0.85,28.14,-34.38,-44.79
0.868,0.67,0.11,0.78,29.86,-19.34,-38.03
0.887,0.62,0.07,0.77,37.05,5.24,-28.5
0.907,0.59,0.2,0.97,37.82,21.74,-26.72
0.927,0.44,0.32,1.04,17.19,15.44,-20.41
0.95,0.57,0.29,0.98,29.01,-6.34,-6.63
0.967,0.6,0.24,0.93,38.37,-9.56,-0.73
0.987,0.62,0.27,0.93,31.33,19.3,-7.33
1.007,0.63,0.3,0.87,33.56,28.72,3.69
1.027,0.63,0.21,1.02,40.06,27.27,27.39
1.047,0.43,0.24,1.14,25.56,23.79,26.18
1.067,0.43,0.27,1.16,25.25,4.81,26.66
1.087,0.6,0.32,1.16,23.33,13.28,28.89
1.107,0.52,0.31,1.24,13.22,27.62,35.15
1.127,0.45,0.24,1.31,12.75,6.81,43.71
1.147,0.46,0.23,1.24,14.79,-5.24,49.79
1.167,0.45,0.26,1.23,18.92,-16.95,47.82
1.186,0.51,0.28,1.24,5.31,11.15,40.12
1.207,0.54,0.29,1.24,-1.37,32.85,48.18
1.227,0.39,0.29,1.27,3.15,20.38,60.66
1.247,0.38,0.31,1.25,2.26,-7.51,66.81
1.267,0.45,0.26,1.14,9.63,17.05,71.13
1.287,0.5,0.25,1.11,12.46,23.25,69.92
1.307,0.44,0.24,1.12,-5.1,54.63,74.7
1.327,0.31,0.27,1.14,-14.5,65.88,79.51
1.347,0.26,0.28,1.09,-18.64,59.22,83.13
1.37,0.23,0.25,1.05,-12.55,30.46,90.67
1.389,0.36,0.13,0.98,-6.58,20.2,93.65
1.407,0.25,0.12,0.93,1.97,30.55,96.29
1.427,0.14,0.13,0.92,7.86,41.48,92.52
1.447,0.05,0.14,0.97,9.94,40.24,84.26
1.467,0.03,0.21,1.13,-0.27,49.47,77.8
1.487,0.03,0.25,1.21,-17.56,53.34,76.34
1.506,0.0,0.23,1.09,-19.27,53.31,76.79
1.53,0.08,0.17,0.98,-14.26,32.12,76.02
1.549,0.17,0.09,0.87,-3.71,33.1,81.66
1.567,0.09,0.11,0.93,8.4,39.8,81.5
1.587,0.02,0.2,1.06,12.24,46.49,70.95
1.607,0.09,0.28,1.15,-0.5,50.32,73.57
1.627,-0.02,0.3,1.26,-10.4,46.87,72.47
1.647,-0.05,0.26,1.2,-24.67,44.14,65.82
1.667,-0.09,0.19,1.15,-28.41,12.58,68.58
1.687,-0.04,0.15,1.13,-28.24,-8.73,70.29
1.707,-0.02,0.13,1.17,-25.15,1.76,66.93
1.726,-0.1,0.18,1.27,-30.21,23.13,66.2
1.747,-0.22,0.19,1.38,-35.19,18.84,61.53
1.768,-0.18,0.17,1.29,-36.38,-9.97,60.96
1.787,-0.11,0.1,1.21,-50.98,-36.79,64.61
1.81,-0.03,0.04,1.16,-61.79,-37.65,64.34
1.828,-0.06,0.02,1.14,-53.54,-22.09,60.18
1.848,0.0,-0.04,1.17,-47.94,10.9,52.84
1.867,0.02,-0.08,1.16,-50.66,26.53,49.76
1.887,0.0,-0.09,1.07,-59.56,8.9,55.62
1.907,-0.01,-0.04,0.97,-57.05,18.12,64.49
1.93,-0.12,-0.12,1.01,-38.46,31.76,64.32
1.948,-0.16,-0.12,0.99,-16.67,23.47,45.53
1.967,0.06,-0.07,0.99,-11.33,6.67,41.47
1.99,0.11,-0.07,0.92,-11.56,18.67,46.47
2.008,0.07,-0.06,1.05,-7.31,41.56,44.89
2.028,0.05,-0.02,1.09,-12.95,23.86,51.3
2.048,0.05,-0.0,0.98,-11.16,12.6,61.24
2.067,-0.15,-0.11,0.98,-13.24,9.89,59.71
2.087,-0.19,-0.17,0.88,-7.15,0.14,40.29
2.107,-0.09,-0.17,0.87,3.89,18.63,25.44
2.13,-0.05,-0.07,0.88,4.44,33.18,27.91
2.149,-0.25,-0.06,1.15,-0.21,31.07,27.42
2.167,-0.21,-0.07,1.13,-7.04,30.96,17.76
2.187,-0.13,-0.04,1.0,-18.82,52.08,11.15
2.207,-0.16,-0.06,0.91,-27.53,93.86,2.09
2.227,-0.34,-0.11,0.94,-30.7,70.49,-1.19
2.247,-0.42,-0.22,0.93,-5.74,40.38,-12.76
2.269,-0.33,-0.2,1.04,9.15,13.02,-21.56
2.287,-0.23,-0.07,1.04,3.59,1.73,-21.66
2.307,-0.24,0.0,1.02,-15.48,7.44,-12.89
2.327,-0.36,0.0,1.07,-42.9,0.56,-17.54
2.348,-0.21,-0.1,0.94,-44.52,-4.76,-24.98
2.371,-0.25,-0.17,0.9,-35.82,-2.61,-24.78
2.39,-0.35,-0.14,0.84,-22.21,-1.73,-35.27
2.408,-0.3,-0.18,0.75,-13.56,1.92,-40.92
2.428,-0.27,-0.19,0.84,-13.54,2.76,-37.19
2.45,-0.37,-0.18,0.86,-13.05,-3.44,-38.72
2.468,-0.26,-0.15,0.91,-14.66,-14.43,-42.27
2.487,-0.1,-0.15,0.83,-19.74,14.73,-42.0
2.51,-0.24,-0.18,0.86,-24.93,3.27,-36.53
2.529,-0.24,-0.23,0.78,-9.68,15.53,-42.38
2.548,-0.33,-0.24,0.89,-1.79,-0.9,-46.4
2.57,-0.21,-0.23,0.82,3.68,-8.0,-52.31
2.587,-0.15,-0.2,0.88,0.95,-5.25,-46.09
2.607,-0.22,-0.16,0.93,-2.75,-21.98,-44.14
2.63,-0.12,-0.18,0.87,-5.42,-33.05,-41.66
2.65,-0.04,-0.15,0.84,-4.93,-29.4,-28.24
2.668,-0.2,-0.21,0.95,-6.31,-40.93,-22.14
2.687,-0.35,-0.26,0.91,2.17,-56.09,-33.91
2.709,-0.24,-0.3,0.86,2.9,-47.57,-56.92
2.728,-0.08,-0.22,0.85,-6.64,-27.83,-66.47
2.747,0.02,-0.17,0.85,-15.94,-2.73,-57.25
2.77,0.0,-0.19,0.82,-10.52,-3.21,-43.89
2.789,-0.07,-0.25,0.8,5.88,5.3,-35.5
2.808,-0.07,-0.2,0.91,15.82,10.82,-46.11
2.83,-0.01,-0.14,0.93,0.34,15.36,-47.42
2.847,-0.03,-0.2,0.91,-17.85,4.87,-47.82
2.867,-0.02,-0.27,0.92,-16.0,-0.6,-43.66
2.889,-0.07,-0.27,0.9,-11.77,-21.71,-42.55
2.908,-0.07,-0.27,0.84,-8.72,-16.67,-43.16
2.927,-0.0,-0.3,0.8,-7.21,-5.69,-45.36
2.949,0.02,-0.27,0.86,-10.29,4.41,-43.51
2.967,0.03,-0.23,0.89,-9.3,7.92,-45.83
2.987,0.04,-0.21,0.9,-9.94,-0.12,-45.34
3.008,0.03,-0.27,0.85,-8.79,1.54,-48.05
3.027,0.02,-0.29,0.85,-4.5,4.31,-53.89
3.05,0.07,-0.3,0.88,2.56,7.48,-57.76
3.067,0.11,-0.25,0.87,7.97,29.33,-54.76
3.087,0.09,-0.22,0.98,10.72,38.66,-42.02
3.107,-0.0,-0.24,1.0,11.04,31.54,-34.17
3.127,0.03,-0.28,0.94,14.09,15.18,-28.5
3.147,-0.01,-0.3,0.91,13.08,-8.99,-23.51
3.168,-0.0,-0.33,0.86,16.73,-16.02,-24.18
3.19,0.0,-0.31,0.89,12.67,-5.88,-30.4
3.207,-0.0,-0.28,0.93,19.4,2.03,-35.51
3.227,0.02,-0.26,0.95,11.3,30.53,-41.24
3.248,0.04,-0.27,0.95,6.78,9.65,-38.29
3.267,0.07,-0.23,0.93,2.67,23.62,-38.2
3.287,0.04,-0.21,0.96,4.47,15.44,-35.07
3.31,0.01,-0.23,0.96,11.86,4.34,-32.96
3.329,0.01,-0.22,1.01,16.64,0.76,-32.75
3.348,0.02,-0.24,1.03,16.82,-2.72,-32.72
3.368,0.06,-0.22,1.02,15.89,-1.02,-29.97
3.388,0.09,-0.21,1.01,8.27,-9.63,-22.12
3.407,0.06,-0.18,1.01,-1.3,-23.88,-18.15
3.43,0.06,-0.24,0.96,-1.31,-38.06,-18.32
3.448,0.12,-0.27,0.93,2.99,-34.7,-20.11
3.467,0.09,-0.25,0.95,5.42,-29.89,-27.37
3.487,0.09,-0.24,0.94,9.16,-30.17,-31.85
3.507,0.21,-0.26,0.94,13.56,-25.13,-28.26
3.527,0.22,-0.27,0.93,17.04,-21.18,-23.83
3.55,0.21,-0.22,0.98,18.98,-15.25,-22.12
3.568,0.17,-0.19,1.03,6.85,2.09,-27.47
3.588,0.17,-0.14,1.06,5.76,0.99,-30.0
3.607,0.25,-0.16,1.08,9.91,-7.57,-23.27
3.626,0.26,-0.17,1.09,9.86,-14.6,-19.69
3.647,0.32,-0.15,1.08,11.48,-22.46,-12.0
3.667,0.42,-0.11,1.0,10.98,-12.66,-1.1
3.687,0.29,-0.09,1.03,14.79,-11.31,8.79
3.706,0.17,-0.11,1.03,18.76,-8.66,1.21
3.727,0.25,-0.15,1.09,10.87,10.11,-5.42
3.746,0.23,-0.16,1.04,4.93,19.25,-6.03
3.767,0.16,-0.17,1.05,2.02,8.11,-5.82
3.787,0.12,-0.16,1.03,1.47,-7.33,-9.27
3.807,0.21,-0.15,1.04,-3.88,-4.0,-4.43
3.827,0.21,-0.14,0.98,-1.34,-6.11,2.76
3.847,0.19,-0.15,1.06,3.82,-11.36,7.33
3.867,0.21,-0.15,1.13,-10.49,9.25,10.43
3.887,0.1,-0.16,1.03,-13.77,2.6,5.98
3.909,0.12,-0.14,1.06,-13.62,-8.98,2.98
3.927,0.15,-0.13,0.99,-15.3,-6.38,1.08
3.95,0.14,-0.16,0.97,-10.06,-14.85,2.84
3.968,0.17,-0.21,0.95,-9.21,-13.13,6.61
3.987,0.14,-0.21,0.95,-4.53,-12.98,6.06
