timestamp,acce_x,acce_y,acce_z,gyro_x,gyro_y,gyro_z
0.001,0.75,0.27,0.71,-2.81,1.91,-1.13
0.003,0.75,0.26,0.72,-3.42,1.92,-0.58
0.004,0.75,0.26,0.71,-3.37,1.18,-0.49
0.005,0.76,0.26,0.71,-3.15,2.03,-0.93
0.007,0.76,0.25,0.71,-2.81,2.09,-1.07
0.008,0.76,0.25,0.71,-3.44,1.76,-0.76
0.009,0.77,0.25,0.72,-3.28,1.97,-1.11
0.011,0.76,0.26,0.72,-2.96,2.34,-1.04
0.012,0.77,0.25,0.73,-3.27,1.5,-0.26
0.013,0.75,0.25,0.72,-2.95,2.11,-0.99
0.014,0.76,0.25,0.73,-2.46,2.43,-0.89
0.015,0.76,0.25,0.72,-1.28,1.4,-1.11
0.016,0.76,0.26,0.71,-0.58,1.11,-1.45
0.017,0.76,0.26,0.7,-1.42,1.65,-1.21
0.018,0.75,0.26,0.71,-2.49,2.14,-1.53
0.019,0.75,0.25,0.71,-2.85,2.35,-1.25
0.02,0.75,0.25,0.71,-2.26,1.83,-0.85
0.021,0.76,0.26,0.71,-2.7,1.34,-0.12
0.022,0.76,0.26,0.71,-2.29,1.97,-1.08
0.023,0.76,0.25,0.71,-3.07,2.24,-1.15
0.024,0.75,0.25,0.72,-3.63,1.92,-1.77
0.025,0.76,0.25,0.72,-2.99,1.82,-1.01
0.026,0.75,0.27,0.71,-1.74,1.86,-1.53
0.027,0.75,0.26,0.72,-2.18,1.36,-0.9
0.027,0.75,0.26,0.72,-2.2,2.0,-1.27
0.028,0.74,0.26,0.71,-2.02,2.03,-1.36
0.029,0.75,0.26,0.71,-2.98,1.04,-0.56
0.029,0.75,0.26,0.7,-1.86,1.28,-0.63
0.03,0.76,0.26,0.7,-2.21,1.22,-0.5
0.031,0.76,0.26,0.7,-3.62,1.42,-0.37
0.032,0.76,0.26,0.71,-4.26,1.62,-0.46
0.032,0.76,0.25,0.72,-4.38,2.32,-0.79
0.033,0.76,0.25,0.72,-3.5,1.71,-0.5
0.034,0.76,0.25,0.72,-3.42,2.32,-1.4
0.035,0.75,0.25,0.74,-3.89,2.47,-1.47
0.036,0.75,0.25,0.72,-2.82,0.69,-0.6
0.036,0.75,0.26,0.72,-2.2,2.08,-1.74
0.037,0.75,0.26,0.73,-2.34,1.54,-0.76
0.038,0.76,0.26,0.71,-2.05,1.27,-0.34
0.038,0.75,0.26,0.71,-1.59,1.88,-0.89
0.039,0.76,0.25,0.7,-1.47,1.22,-0.06
0.04,0.76,0.26,0.71,-1.97,1.3,-0.49
0.041,0.76,0.25,0.7,-3.07,1.74,-0.37
0.041,0.75,0.25,0.72,-4.31,1.59,-0.73
0.042,0.79,0.25,0.69,-4.35,1.34,-0.9
0.043,0.77,0.25,0.7,-3.1,-0.18,-0.87
0.043,0.75,0.25,0.72,-1.79,2.14,-1.73
0.044,0.75,0.25,0.72,-3.76,1.24,-0.82
0.045,0.76,0.25,0.71,-2.99,0.47,-1.44
0.045,0.76,0.26,0.72,-2.21,2.06,-1.02
0.046,0.76,0.25,0.71,-2.2,1.24,-0.5
0.047,0.76,0.25,0.72,-2.96,1.51,-0.99
0.047,0.76,0.25,0.72,-2.9,2.23,-1.02
0.048,0.75,0.25,0.72,-1.45,2.02,-0.67
0.049,0.76,0.26,0.7,-0.73,0.41,-0.41
0.049,0.76,0.25,0.7,-0.4,0.6,-0.66
0.05,0.75,0.25,0.71,-1.34,1.33,-0.9
0.051,0.75,0.26,0.7,-1.91,1.31,-0.87
0.052,0.76,0.26,0.71,-2.06,0.81,-0.34
0.052,0.75,0.26,0.71,-3.02,1.95,-1.07
0.053,0.75,0.26,0.71,-2.61,1.77,-0.17
0.054,0.76,0.25,0.71,-2.95,2.64,-1.33
0.054,0.76,0.26,0.71,-3.39,2.31,-0.99
0.055,0.76,0.25,0.72,-3.56,1.68,-0.99
0.056,0.76,0.25,0.73,-3.4,1.88,-1.02
0.056,0.76,0.25,0.72,-2.46,2.02,-0.66
0.057,0.76,0.25,0.73,-2.27,1.88,-1.33
0.058,0.75,0.25,0.72,-1.94,1.44,-0.38
0.058,0.75,0.25,0.72,-1.73,1.8,-1.05
0.059,0.76,0.25,0.71,-1.48,0.81,-0.43
0.06,0.76,0.26,0.7,-1.8,1.21,-1.31
0.06,0.76,0.26,0.7,-2.31,1.83,-0.78
0.061,0.76,0.26,0.71,-3.16,1.71,-0.73
0.062,0.74,0.25,0.72,-3.08,1.98,-0.35
0.062,0.76,0.25,0.71,-2.9,1.76,-0.56
0.063,0.76,0.25,0.71,-2.98,1.65,-0.85
0.064,0.75,0.25,0.71,-3.34,1.19,-0.6
0.064,0.75,0.25,0.72,-3.77,2.14,-1.08
0.065,0.76,0.25,0.72,-3.94,1.74,-0.6
0.066,0.75,0.25,0.73,-3.74,2.14,-1.08
0.066,0.76,0.25,0.71,-2.66,1.21,-0.24
0.067,0.76,0.25,0.73,-2.14,1.69,-0.96
0.068,0.76,0.25,0.72,-1.95,1.89,-1.27
0.068,0.43,-0.26,0.87,-2.75,0.17,-0.75
0.069,0.43,-0.27,0.87,-3.71,0.93,-0.31
0.077,0.43,-0.28,0.89,-3.92,1.07,-0.14
0.095,0.43,-0.28,0.88,-2.78,0.75,-1.21
0.119,0.43,-0.27,0.88,-2.95,0.21,-0.72
0.137,0.43,-0.27,0.89,-2.82,1.65,-1.02
0.155,0.43,-0.27,0.88,-2.44,0.6,-0.75
0.178,0.44,-0.27,0.87,-2.66,1.02,-1.37
0.196,0.43,-0.27,0.88,-2.89,1.42,-1.05
0.219,0.44,-0.27,0.88,-3.42,1.57,-1.34
0.237,0.43,-0.27,0.87,-3.11,1.18,-0.93
0.255,0.43,-0.27,0.88,-3.27,1.68,-0.79
0.279,0.43,-0.27,0.89,-2.81,1.07,-0.53
0.297,0.44,-0.27,0.88,-2.95,1.25,-0.58
0.315,0.44,-0.27,0.88,-2.85,1.31,-0.12
0.338,0.44,-0.28,0.89,-2.79,1.71,-0.46
0.356,0.43,-0.28,0.88,-2.72,1.57,-0.82
0.38,0.44,-0.28,0.88,-2.67,1.28,-0.53
0.398,0.44,-0.27,0.88,-2.17,1.48,-0.93
0.416,0.44,-0.27,0.87,-2.41,0.99,-1.15
0.439,0.43,-0.27,0.87,-2.72,1.57,-0.7
0.457,0.44,-0.27,0.87,-2.76,1.42,-0.64
0.476,0.43,-0.28,0.87,-2.32,1.31,-0.81
0.499,0.43,-0.27,0.88,-2.27,0.11,-0.79
0.516,0.44,-0.27,0.87,-2.52,1.54,-0.05
0.539,0.44,-0.27,0.88,-2.5,0.66,-0.64
0.558,0.44,-0.27,0.88,-2.58,0.75,-0.98
0.576,0.43,-0.27,0.87,-2.78,0.49,-0.7
0.599,0.44,-0.27,0.88,-3.02,1.4,-0.75
0.617,0.44,-0.28,0.88,-2.99,2.05,-0.24
0.635,0.44,-0.27,0.88,-2.44,1.39,-0.99
0.659,0.44,-0.27,0.89,-1.79,1.57,-1.1
0.677,0.44,-0.26,0.87,-2.26,1.07,-0.73
0.699,0.43,-0.26,0.87,-2.76,1.5,-0.14
0.718,0.43,-0.27,0.88,-3.05,1.25,-0.29
0.736,0.45,-0.28,0.89,-2.64,1.65,-0.63
0.759,0.44,-0.27,0.88,-2.35,1.42,-0.6
0.777,0.43,-0.27,0.88,-2.44,1.71,-0.46
0.795,0.44,-0.28,0.88,-2.46,1.91,-0.23
0.818,0.44,-0.28,0.88,-2.58,2.34,-0.66
0.836,0.44,-0.28,0.88,-2.11,1.27,-1.42
0.86,0.44,-0.27,0.87,-2.49,1.21,-1.18
0.878,0.43,-0.28,0.88,-2.78,1.98,-0.79
0.896,0.43,-0.27,0.88,-2.82,1.98,-0.56
0.919,0.44,-0.27,0.88,-3.05,2.02,-0.87
0.937,0.43,-0.28,0.88,-2.44,1.74,-0.85
0.955,0.44,-0.28,0.88,-2.35,1.73,-0.99
0.978,0.44,-0.28,0.88,-2.55,2.0,-0.66
0.999,0.44,-0.27,0.87,-2.69,1.44,-0.47
1.019,0.44,-0.28,0.88,-3.01,1.65,-0.6
1.037,0.43,-0.28,0.89,-2.43,1.53,-1.04
1.056,0.43,-0.28,0.88,-2.0,1.33,-0.99
1.079,0.43,-0.27,0.87,-2.24,1.62,-0.66
1.097,0.43,-0.27,0.88,-2.46,1.77,-0.23
1.115,0.43,-0.27,0.87,-2.55,1.82,-0.4
1.138,0.44,-0.27,0.87,-2.55,1.36,-0.82
1.156,0.43,-0.27,0.88,-2.67,1.65,-1.13
1.179,0.44,-0.27,0.88,-2.95,2.03,-0.99
1.197,0.44,-0.27,0.88,-3.01,1.73,-0.75
1.215,0.44,-0.27,0.88,-2.96,1.91,-1.18
1.239,0.43,-0.28,0.88,-2.23,1.74,-0.95
1.257,0.43,-0.28,0.88,-2.26,1.77,-1.11
1.275,0.42,-0.27,0.88,-2.46,2.06,-0.7
1.298,0.43,-0.27,0.87,-2.53,1.21,-0.82
1.316,0.43,-0.27,0.87,-2.87,1.01,-0.89
1.34,0.44,-0.27,0.88,-2.9,1.59,-0.85
1.358,0.43,-0.27,0.88,-2.96,1.54,-0.63
1.376,0.44,-0.27,0.88,-2.95,1.56,-1.22
1.399,0.43,-0.28,0.88,-2.82,1.48,-1.4
1.417,0.43,-0.27,0.88,-2.99,1.39,-1.33
1.435,0.44,-0.28,0.88,-3.4,1.79,-0.79
1.458,0.43,-0.27,0.88,-2.81,1.48,-1.08
1.476,0.44,-0.27,0.88,-2.5,1.66,-1.07
1.499,0.44,-0.27,0.88,-2.63,1.79,-0.75
1.517,0.44,-0.27,0.89,-2.23,1.69,-1.01
1.536,0.44,-0.28,0.87,-2.23,1.54,-1.48
1.559,0.44,-0.28,0.88,-2.58,1.34,-2.09
1.578,0.43,-0.27,0.88,-2.75,1.5,-1.31
1.595,0.43,-0.28,0.88,-3.3,2.17,-0.93
1.618,0.43,-0.27,0.88,-3.15,1.8,-0.84
1.636,0.44,-0.28,0.88,-2.99,1.39,-1.16
1.66,0.43,-0.27,0.88,-3.11,1.73,-1.02
1.678,0.44,-0.27,0.87,-2.93,1.24,-0.66
1.696,0.44,-0.27,0.88,-3.28,1.85,-0.58
1.719,0.44,-0.28,0.88,-2.96,1.57,-1.04
1.737,0.43,-0.28,0.88,-2.31,0.85,-1.15
1.755,0.44,-0.27,0.87,-2.64,0.95,-1.18
1.778,0.43,-0.27,0.88,-3.1,1.27,-0.79
1.796,0.43,-0.28,0.88,-2.81,0.82,-0.84
1.82,0.44,-0.28,0.88,-2.93,1.27,-0.7
1.837,0.44,-0.28,0.88,-2.53,0.92,-1.05
1.855,0.44,-0.27,0.88,-2.31,0.35,-1.25
1.879,0.45,-0.27,0.88,-2.55,1.21,-1.33
1.897,0.44,-0.27,0.88,-2.47,1.15,-1.95
1.915,0.44,-0.27,0.88,-2.89,1.11,-1.8
1.938,0.44,-0.27,0.88,-3.31,1.69,-1.39
1.956,0.43,-0.28,0.88,-3.54,1.74,-1.4
1.979,0.43,-0.27,0.89,-3.77,1.66,-1.37
1.997,0.43,-0.27,0.88,-3.37,1.39,-0.84
2.016,0.44,-0.28,0.88,-3.44,1.71,-0.9
2.039,0.44,-0.28,0.88,-2.84,1.44,-0.84
2.057,0.43,-0.28,0.88,-2.55,1.6,-0.98
2.076,0.44,-0.28,0.88,-1.98,1.4,-0.84
2.098,0.43,-0.27,0.87,-2.18,1.48,-0.93
2.116,0.44,-0.27,0.88,-2.26,1.3,-0.66
2.139,0.44,-0.27,0.88,-2.23,1.44,-0.81
2.158,0.44,-0.27,0.88,-2.12,0.85,-0.99
2.177,0.45,-0.27,0.87,-2.0,1.22,-1.37
2.199,0.44,-0.27,0.87,-2.5,1.25,-1.21
2.217,0.44,-0.27,0.88,-3.21,1.66,-1.59
2.235,0.44,-0.27,0.87,-3.16,1.79,-1.6
2.259,0.44,-0.28,0.87,-3.44,1.69,-1.74
2.276,0.44,-0.27,0.88,-3.24,1.54,-1.27
2.299,0.43,-0.28,0.88,-2.79,1.65,-1.34
2.317,0.43,-0.28,0.89,-2.52,1.37,-1.25
2.336,0.44,-0.28,0.88,-2.5,1.66,-0.69
2.359,0.44,-0.28,0.88,-2.93,1.66,-0.37
2.377,0.43,-0.28,0.88,-2.66,1.54,-0.69
2.396,0.44,-0.27,0.88,-2.29,1.71,-0.82
2.418,0.44,-0.28,0.88,-2.31,1.44,-0.81
2.437,0.45,-0.28,0.88,-2.18,1.3,-0.79
2.461,0.44,-0.27,0.88,-1.71,1.25,-1.54
2.478,0.44,-0.27,0.87,-1.62,0.43,-1.31
2.496,0.44,-0.28,0.87,-2.72,1.74,-0.81
2.519,0.43,-0.28,0.87,-2.61,1.34,-0.49
2.537,0.43,-0.28,0.88,-2.58,1.69,-0.32
2.555,0.43,-0.28,0.88,-2.34,1.79,0.26
2.579,0.44,-0.28,0.88,-1.95,1.34,0.06
2.597,0.44,-0.27,0.88,-1.85,1.31,-0.5
2.62,0.44,-0.27,0.87,-1.77,1.68,-0.92
2.638,0.44,-0.26,0.87,-1.83,1.56,-1.04
2.656,0.44,-0.27,0.87,-2.0,1.19,-0.78
2.679,0.44,-0.27,0.88,-2.23,1.98,-0.23
2.697,0.44,-0.28,0.88,-2.26,1.6,-0.4
2.715,0.44,-0.27,0.88,-2.14,1.02,-1.02
2.738,0.44,-0.27,0.88,-2.44,1.3,-1.08
2.757,0.44,-0.27,0.88,-2.66,1.65,-0.73
2.78,0.45,-0.27,0.88,-3.13,2.06,-0.99
2.798,0.43,-0.28,0.88,-2.43,2.4,-1.25
2.816,0.44,-0.27,0.87,-2.29,0.84,-1.13
2.839,0.44,-0.27,0.88,-2.23,1.89,-0.93
2.857,0.44,-0.27,0.88,-1.71,1.39,-0.89
2.875,0.43,-0.27,0.87,-1.94,1.76,-0.82
2.899,0.44,-0.27,0.88,-1.97,2.34,-0.2
2.917,0.44,-0.27,0.87,-2.35,1.68,-0.49
2.94,0.45,-0.27,0.89,-1.86,0.63,-0.87
2.958,0.44,-0.26,0.88,-1.86,1.19,-0.95
2.976,0.44,-0.27,0.87,-2.69,1.68,-0.93
2.999,0.44,-0.27,0.88,-2.72,1.86,-0.95
3.017,0.45,-0.27,0.87,-2.96,2.49,-1.25
3.035,0.44,-0.27,0.88,-2.44,1.97,-1.21
3.059,0.44,-0.28,0.89,-2.03,1.88,-1.44
3.077,0.44,-0.27,0.87,-2.06,2.15,-0.85
3.1,0.44,-0.27,0.88,-1.94,2.26,-0.69
3.118,0.43,-0.28,0.88,-2.37,1.83,-0.5
3.136,0.44,-0.27,0.88,-2.12,1.97,-0.43
3.163,0.43,-0.27,0.88,-2.05,2.18,-0.2
3.177,0.43,-0.27,0.87,-2.27,2.26,-0.09
3.195,0.44,-0.27,0.89,-2.0,1.54,-0.35
3.219,0.44,-0.28,0.88,-2.4,1.47,-0.52
3.237,0.43,-0.27,0.88,-2.49,1.47,-0.55
3.26,0.44,-0.26,0.88,-2.7,1.95,-0.38
3.278,0.44,-0.27,0.88,-2.99,2.2,-0.95
3.296,0.43,-0.27,0.88,-2.4,1.56,-1.15
3.321,0.43,-0.26,0.88,-2.06,1.76,-0.58
3.337,0.44,-0.28,0.88,-2.47,2.02,-0.15
3.355,0.43,-0.27,0.87,-2.05,1.74,-0.2
3.379,0.44,-0.27,0.87,-2.18,1.25,-0.72
3.399,0.44,-0.27,0.88,-1.8,2.35,-0.52
3.42,0.44,-0.27,0.87,-1.82,0.95,-0.96
3.438,0.44,-0.27,0.88,-2.44,1.77,-0.81
3.456,0.43,-0.27,0.88,-2.55,2.21,-0.43
3.479,0.44,-0.27,0.88,-2.4,1.25,-0.95
3.497,0.44,-0.26,0.88,-2.52,1.73,-0.64
3.515,0.44,-0.27,0.87,-2.76,1.88,-1.1
3.538,0.44,-0.27,0.88,-2.38,1.31,-0.95
3.556,0.44,-0.27,0.89,-2.64,1.8,-0.72
3.58,0.44,-0.27,0.88,-2.29,2.12,-0.69
3.598,0.43,-0.27,0.87,-2.47,1.08,-0.63
3.616,0.43,-0.27,0.88,-2.63,2.12,-0.72
3.639,0.44,-0.27,0.88,-2.37,1.95,-0.53
3.657,0.43,-0.26,0.89,-2.55,2.0,-0.63
3.675,0.43,-0.27,0.88,-2.53,1.34,-0.53
3.699,0.43,-0.27,0.88,-2.67,1.62,-0.75
3.717,0.44,-0.27,0.88,-2.52,0.92,-0.76
3.74,0.45,-0.27,0.88,-2.76,1.68,-1.62
3.758,0.44,-0.27,0.88,-2.87,1.42,-1.28
3.777,0.44,-0.27,0.88,-3.15,1.48,-1.1
3.799,0.44,-0.27,0.88,-2.98,2.34,-0.9
3.817,0.43,-0.27,0.88,-2.9,1.65,-0.98
3.835,0.44,-0.27,0.89,-2.55,2.29,-0.87
3.86,0.44,-0.27,0.89,-1.89,1.74,-0.75
3.877,0.44,-0.26,0.88,-1.73,1.83,-0.95
3.9,0.44,-0.26,0.88,-2.49,1.69,-0.37
3.918,0.44,-0.27,0.88,-2.82,2.23,-0.82
3.936,0.44,-0.27,0.89,-2.12,1.69,-0.82
3.96,0.42,-0.26,0.88,-2.4,1.53,-1.16
3.977,0.44,-0.27,0.89,-2.6,1.68,-0.21
