timestamp,acce_x,acce_y,acce_z,gyro_x,gyro_y,gyro_z
0.0,-0.2,-0.79,0.43,-3.27,2.41,-0.11
0.002,-0.22,-0.8,0.43,-3.82,2.56,-1.73
0.003,-0.21,-0.81,0.44,-3.48,2.55,-0.53
0.005,-0.22,-0.82,0.45,-2.05,2.15,-0.2
0.006,-0.22,-0.8,0.43,-1.59,0.96,-1.95
0.007,-0.21,-0.78,0.44,-2.17,2.15,0.35
0.009,-0.21,-0.8,0.44,-2.6,2.52,0.02
0.01,-0.21,-0.79,0.44,-2.55,1.85,-1.5
0.011,-0.22,-0.79,0.44,-2.93,1.65,-0.61
0.012,-0.21,-0.79,0.44,-3.11,1.69,-0.79
0.013,-0.21,-0.8,0.44,-3.16,1.76,-0.84
0.014,-0.22,-0.8,0.43,-3.08,1.19,-0.9
0.015,-0.21,-0.81,0.43,-2.7,1.97,-0.41
0.017,-0.22,-0.8,0.43,-2.49,1.33,-1.22
0.017,-0.18,-0.78,0.42,-2.26,3.37,8.92
0.018,-0.22,-0.79,0.44,-2.78,1.98,-0.12
0.019,-0.21,-0.8,0.43,-2.87,1.62,-2.41
0.02,-0.22,-0.79,0.43,-3.34,2.06,-0.15
0.021,-0.22,-0.8,0.44,-3.51,1.18,-0.66
0.022,-0.21,-0.8,0.43,-2.76,1.79,-1.21
0.023,-0.21,-0.8,0.44,-3.36,1.36,-0.75
0.024,-0.21,-0.79,0.43,-3.27,1.54,0.12
0.025,-0.22,-0.8,0.44,-3.15,0.72,0.34
0.026,-0.2,-0.87,0.44,2.02,-2.03,3.4
0.027,-0.25,-0.87,0.46,9.24,-7.16,-1.6
0.028,-0.18,-0.91,0.46,15.11,-11.69,-16.95
0.028,-0.25,-0.72,0.45,6.21,-2.0,-27.8
0.029,-0.12,-1.04,0.33,38.44,-18.76,-23.83
0.03,-0.32,-0.54,0.52,33.71,17.56,-18.55
0.031,-0.29,-0.94,0.51,37.54,-13.25,-48.75
0.031,-0.15,-0.84,0.52,29.82,-25.88,-51.02
0.032,-0.21,-0.9,0.51,48.4,-22.72,-69.94
0.033,0.03,-0.87,0.41,60.26,-69.44,-35.22
0.033,-0.17,-0.91,0.51,72.96,-21.79,-72.0
0.034,-0.07,-0.74,0.55,61.42,-36.55,-55.28
0.035,-0.01,-0.65,0.59,66.41,5.94,-71.34
0.036,0.07,-0.76,0.47,54.89,5.8,-123.05
0.037,0.02,-0.8,0.52,64.89,0.14,-95.94
0.037,0.05,-0.63,0.55,55.45,2.85,-136.79
0.038,0.1,-0.69,0.55,74.61,-12.37,-130.49
0.039,0.03,-0.6,0.75,73.48,-5.5,-119.08
0.04,0.1,-0.66,0.69,67.65,-48.11,-157.22
0.04,0.3,-0.69,0.65,90.31,-47.94,-84.56
0.041,0.13,-0.71,0.58,100.75,-58.12,-82.4
0.042,0.14,-0.45,0.72,74.72,-70.31,-102.06
0.042,0.34,-0.43,0.57,73.39,-63.6,-114.73
0.043,0.29,-0.35,0.74,43.45,-50.72,-79.28
0.044,0.51,-0.54,0.67,30.84,-18.35,-125.91
0.045,0.33,-0.47,0.82,78.03,-69.73,-103.28
0.045,0.55,-0.44,0.62,46.46,-40.9,-134.4
0.046,0.62,0.2,0.78,-76.53,49.56,-290.75
0.047,0.55,-0.31,0.57,0.0,43.42,4.27
0.047,0.26,-0.73,0.86,58.38,12.79,-79.83
0.048,0.5,-0.49,0.84,73.51,17.34,-22.34
0.049,-0.62,0.29,0.88,99.18,-152.58,11.16
0.049,0.25,-0.39,0.79,46.17,-22.34,-64.96
0.05,0.52,-0.34,0.76,26.43,-23.97,-83.5
0.051,0.56,-0.2,0.69,6.06,-7.56,-123.21
0.051,0.28,-0.25,0.93,7.04,-18.89,-92.55
0.052,0.74,-0.82,0.74,-27.36,41.63,-294.43
0.053,0.39,-0.35,1.0,21.28,-6.7,-86.31
0.054,0.89,-0.37,0.43,14.76,5.88,-143.77
0.054,0.32,-0.07,0.75,21.89,2.44,-19.1
0.055,0.51,-0.11,1.09,46.73,-30.93,7.83
0.055,0.56,-0.23,0.79,27.53,-29.5,-9.1
0.056,0.65,-0.07,0.36,-20.05,31.6,-122.14
0.057,0.59,-0.07,0.63,45.48,-33.21,111.76
0.058,0.55,-0.18,0.78,52.34,-45.8,57.04
0.058,0.78,-0.15,0.88,55.76,-34.7,35.95
0.059,0.9,-0.38,0.83,16.9,30.24,59.13
0.06,0.49,0.07,0.79,52.09,-23.16,109.19
0.06,0.55,0.06,0.78,24.9,-13.65,37.28
0.061,0.76,-0.21,0.81,64.34,-8.79,66.72
0.061,0.56,-0.27,0.78,57.79,7.76,-4.81
0.062,0.15,0.2,1.5,-36.26,-46.11,-59.63
0.063,0.89,-0.0,0.73,70.4,3.66,54.35
0.064,0.53,0.0,0.81,31.63,-3.24,-19.76
0.064,0.63,0.06,0.82,23.95,-3.69,17.28
0.065,0.51,0.44,0.91,30.7,15.71,38.56
0.066,0.58,-0.1,0.83,38.0,13.86,38.23
0.066,0.53,-0.09,0.84,27.88,3.08,-27.62
0.067,0.51,-0.04,0.86,16.14,-20.0,-79.63
0.068,0.71,0.27,0.74,-2.64,1.01,-1.6
0.069,0.72,0.26,0.75,-2.56,0.78,-0.79
0.083,0.71,0.27,0.75,-2.31,1.85,-2.14
0.101,0.72,0.27,0.75,-1.57,0.69,-3.25
0.125,0.71,0.28,0.74,-2.27,1.54,-2.76
0.143,0.72,0.27,0.74,-2.61,1.68,-1.39
0.161,0.71,0.27,0.75,-2.38,1.27,-1.53
0.185,0.71,0.27,0.74,-2.81,1.79,-1.5
0.203,0.71,0.27,0.75,-2.37,1.3,-1.08
0.226,0.71,0.27,0.74,-3.08,2.24,-1.95
0.244,0.7,0.27,0.74,-3.05,1.95,-1.47
0.262,0.71,0.27,0.74,-3.21,1.37,-1.63
0.286,0.71,0.27,0.75,-3.16,1.44,-1.68
0.304,0.71,0.27,0.75,-2.81,1.73,-1.31
0.322,0.71,0.27,0.75,-2.46,0.99,-1.79
0.345,0.72,0.27,0.74,-2.21,1.4,-1.82
0.363,0.7,0.27,0.73,-2.93,1.94,-2.69
0.381,0.71,0.27,0.75,-3.25,2.05,-1.28
0.405,0.72,0.27,0.74,-2.24,1.39,-0.44
0.423,0.71,0.27,0.74,-2.72,2.09,-2.09
0.442,0.7,0.27,0.75,-3.15,1.8,-3.01
0.464,0.71,0.26,0.75,-3.16,1.5,-1.97
0.483,0.71,0.27,0.74,-2.67,2.08,0.23
0.506,0.72,0.27,0.74,-2.11,1.57,-1.56
0.524,0.71,0.28,0.74,-2.17,2.09,-2.05
0.542,0.7,0.27,0.74,-3.16,2.24,-1.5
0.566,0.7,0.27,0.74,-3.21,1.79,-1.97
0.587,0.71,0.27,0.74,-2.52,1.73,-1.63
0.603,0.71,0.27,0.74,-2.46,1.31,-1.98
0.625,0.7,0.27,0.75,-2.29,1.33,-1.69
0.643,0.71,0.27,0.74,-2.26,1.24,-1.73
0.661,0.71,0.27,0.75,-2.85,1.42,-2.09
0.685,0.71,0.27,0.74,-2.34,1.59,-0.93
0.707,0.71,0.27,0.75,-2.32,1.27,-1.5
0.726,0.71,0.28,0.74,-2.4,1.86,-1.31
0.748,0.7,0.27,0.74,-2.4,1.66,-1.31
0.762,0.7,0.27,0.74,-2.69,1.57,-1.85
0.786,0.72,0.27,0.73,-2.35,1.28,-1.04
0.804,0.71,0.28,0.75,-2.46,1.88,-1.22
0.822,0.7,0.27,0.74,-2.5,1.91,-1.3
0.846,0.71,0.27,0.75,-2.2,1.59,-1.69
0.864,0.7,0.27,0.74,-2.55,2.85,-3.82
0.882,0.7,0.28,0.74,-2.72,2.76,-4.61
0.905,0.7,0.28,0.74,-2.52,1.71,-3.5
0.923,0.7,0.27,0.74,-2.52,1.6,-1.56
0.942,0.72,0.27,0.74,-2.03,0.82,-0.81
0.965,0.72,0.29,0.74,-2.12,0.78,-1.31
0.983,0.71,0.28,0.75,-2.4,1.65,-0.32
1.006,0.7,0.28,0.75,-2.82,2.23,-1.05
1.024,0.7,0.28,0.74,-2.6,1.76,-0.72
1.042,0.72,0.28,0.74,-3.01,1.83,-0.56
1.065,0.71,0.27,0.74,-3.77,2.9,-1.19
1.084,0.71,0.26,0.75,-3.37,2.37,-2.34
1.102,0.7,0.28,0.74,-2.93,2.08,-1.28
1.125,0.7,0.28,0.74,-2.78,1.76,-0.47
1.143,0.7,0.27,0.74,-2.69,1.6,-0.69
1.161,0.71,0.27,0.74,-2.85,1.02,-1.27
1.185,0.69,0.27,0.75,-2.52,1.76,-0.47
1.203,0.71,0.28,0.74,-2.79,1.4,-1.83
1.221,0.71,0.28,0.74,-2.14,1.51,-0.09
1.244,0.7,0.27,0.75,-3.45,2.06,-3.01
1.263,0.71,0.28,0.75,-2.69,1.56,-1.24
1.286,0.71,0.27,0.75,-2.95,2.24,-0.67
1.304,0.71,0.28,0.75,-2.67,1.65,-0.99
1.322,0.7,0.27,0.74,-2.46,1.91,-1.25
1.345,0.71,0.28,0.73,-2.52,1.24,-1.79
1.363,0.7,0.27,0.74,-3.13,1.91,-0.43
1.382,0.69,0.28,0.75,-3.25,2.06,-2.32
1.405,0.71,0.27,0.75,-2.0,0.69,-1.83
1.423,0.7,0.28,0.75,-2.75,1.95,-1.3
1.442,0.71,0.27,0.74,-3.11,1.6,-1.69
1.465,0.71,0.28,0.73,-2.29,1.36,-1.39
1.483,0.7,0.27,0.74,-2.55,1.8,-2.64
1.506,0.7,0.28,0.74,-2.56,1.88,-1.65
1.524,0.7,0.28,0.75,-2.6,1.98,-1.42
1.542,0.71,0.27,0.74,-2.5,1.16,-0.95
1.566,0.7,0.27,0.74,-2.69,1.36,-0.96
1.584,0.71,0.28,0.73,-2.37,1.56,-1.39
1.603,0.71,0.28,0.75,-2.03,1.69,-0.66
1.625,0.71,0.28,0.74,-2.73,1.82,-0.67
1.645,0.71,0.28,0.74,-3.16,2.02,-0.78
1.663,0.7,0.27,0.75,-3.42,2.0,-2.18
1.685,0.7,0.27,0.74,-3.22,1.85,-1.16
1.705,0.7,0.27,0.74,-2.49,1.31,-1.04
1.723,0.71,0.28,0.74,-2.2,0.75,-1.42
1.746,0.7,0.28,0.74,-2.9,1.66,-1.74
1.762,0.7,0.27,0.75,-3.5,1.36,-1.15
1.786,0.71,0.28,0.76,-1.95,0.47,-0.35
1.805,0.71,0.28,0.75,-2.14,1.34,-1.71
1.822,0.71,0.27,0.75,-2.9,1.48,-1.54
1.845,0.7,0.28,0.75,-3.07,2.17,-0.6
1.863,0.7,0.28,0.74,-2.55,1.88,-1.4
1.882,0.71,0.28,0.74,-2.24,1.24,-0.98
1.905,0.7,0.27,0.75,-2.58,1.82,-0.7
1.924,0.71,0.28,0.74,-2.55,1.44,-0.82
1.941,0.7,0.28,0.74,-3.33,2.24,-2.41
1.965,0.71,0.28,0.75,-2.6,2.05,-1.42
1.983,0.7,0.28,0.74,-2.34,1.82,-1.05
2.006,0.71,0.28,0.75,-2.49,1.98,-0.6
2.024,0.7,0.27,0.76,-2.82,2.78,-0.09
2.042,0.7,0.27,0.74,-2.29,2.14,-1.02
2.066,0.71,0.28,0.75,-2.2,0.98,-0.4
2.084,0.7,0.26,0.74,-3.05,1.51,0.31
2.102,0.69,0.27,0.76,-3.16,1.63,-0.76
2.126,0.7,0.28,0.74,-2.49,1.4,-2.69
2.143,0.71,0.28,0.74,-2.12,1.05,-1.24
2.162,0.71,0.27,0.75,-2.69,1.05,-1.08
2.185,0.7,0.28,0.74,-2.67,1.39,-0.27
2.203,0.71,0.28,0.74,-2.75,1.37,-1.59
2.223,0.7,0.27,0.74,-2.67,1.44,-1.21
2.246,0.71,0.27,0.75,-2.61,0.95,-0.69
2.263,0.71,0.27,0.74,-2.81,1.48,-0.41
2.29,0.7,0.28,0.75,-2.55,1.5,-1.63
2.306,0.7,0.27,0.75,-2.44,1.6,-1.39
2.322,0.7,0.28,0.75,-2.26,1.39,-0.81
2.346,0.7,0.27,0.75,-1.88,1.16,-1.73
2.364,0.7,0.28,0.74,-2.41,1.47,-0.98
2.382,0.72,0.28,0.74,-2.69,1.62,-0.08
2.405,0.71,0.28,0.74,-2.55,2.17,-1.62
2.424,0.71,0.27,0.75,-2.61,2.23,-1.39
2.442,0.71,0.28,0.75,-2.37,2.12,-0.76
2.465,0.71,0.28,0.74,-2.02,1.59,-0.69
2.483,0.7,0.28,0.74,-2.34,1.19,-1.83
2.506,0.7,0.27,0.74,-3.15,1.8,-0.66
2.525,0.69,0.28,0.74,-2.87,1.76,-1.62
2.543,0.69,0.28,0.74,-2.34,0.64,-2.18
2.566,0.7,0.28,0.74,-2.11,0.79,-1.71
2.584,0.7,0.29,0.75,-2.24,1.6,-1.33
2.603,0.71,0.28,0.75,-2.61,1.15,-1.97
2.626,0.71,0.28,0.75,-2.78,1.42,-1.51
2.643,0.71,0.28,0.75,-2.56,1.11,-0.84
2.662,0.7,0.28,0.74,-2.55,1.66,-0.85
2.685,0.69,0.27,0.75,-3.25,2.35,-1.82
2.704,0.7,0.28,0.74,-2.58,1.85,-0.87
2.721,0.7,0.28,0.74,-2.66,1.69,-0.78
2.745,0.7,0.28,0.74,-3.51,1.66,-2.03
2.763,0.7,0.28,0.76,-3.47,2.11,-0.82
2.786,0.71,0.28,0.74,-2.85,1.44,-0.95
2.804,0.7,0.28,0.74,-2.82,1.57,-0.29
2.822,0.7,0.28,0.74,-2.75,1.86,-1.97
2.846,0.7,0.28,0.75,-2.99,1.68,-1.44
2.864,0.71,0.27,0.75,-3.27,1.73,-0.84
2.882,0.71,0.28,0.74,-2.41,1.62,-0.49
2.905,0.71,0.28,0.74,-2.26,1.48,-2.52
2.924,0.7,0.27,0.76,-2.81,1.86,-0.81
2.942,0.69,0.27,0.74,-2.82,2.23,0.03
2.965,0.69,0.28,0.75,-2.03,1.53,-0.67
2.983,0.71,0.28,0.74,-2.08,1.21,-1.6
3.002,0.71,0.28,0.74,-2.4,1.34,-1.04
3.025,0.7,0.28,0.74,-2.99,2.46,-0.72
3.043,0.7,0.28,0.75,-2.53,1.36,-1.54
3.066,0.7,0.28,0.74,-3.01,1.53,-1.39
3.085,0.71,0.27,0.74,-2.93,1.36,-0.12
3.106,0.7,0.28,0.74,-2.27,1.19,-0.76
3.126,0.71,0.28,0.75,-1.95,0.81,-1.21
3.144,0.7,0.28,0.74,-2.24,1.65,-0.73
3.165,0.7,0.28,0.75,-2.66,1.44,-0.84
3.185,0.7,0.28,0.74,-2.47,1.54,-0.85
3.206,0.7,0.27,0.74,-2.95,1.63,-0.92
3.222,0.7,0.29,0.74,-2.75,1.91,-1.21
3.245,0.7,0.28,0.76,-2.72,1.21,-1.56
3.263,0.71,0.28,0.74,-2.7,1.45,-0.55
3.281,0.7,0.28,0.75,-2.47,1.85,-0.23
3.305,0.71,0.27,0.73,-2.9,1.74,-1.36
3.323,0.7,0.27,0.74,-2.46,1.89,-1.1
3.346,0.71,0.28,0.75,-2.58,1.76,-1.36
3.364,0.7,0.28,0.74,-2.15,1.69,-1.37
3.382,0.69,0.29,0.74,-2.46,1.13,-0.9
3.406,0.7,0.29,0.74,-2.56,0.84,-0.64
3.424,0.71,0.28,0.75,-2.81,0.61,-0.93
3.442,0.7,0.27,0.74,-2.6,1.34,-0.81
3.466,0.72,0.28,0.75,-2.49,1.18,-0.99
3.484,0.71,0.27,0.74,-2.9,1.63,-1.15
3.506,0.71,0.27,0.74,-3.27,1.98,-1.31
3.525,0.69,0.28,0.74,-2.6,1.83,-0.93
3.543,0.7,0.28,0.74,-2.55,1.73,-0.52
3.563,0.7,0.28,0.73,-2.26,1.48,0.15
3.586,0.7,0.29,0.75,-2.55,0.95,-1.3
3.603,0.7,0.28,0.74,-2.37,1.1,0.14
3.626,0.7,0.28,0.74,-2.79,1.47,-1.19
3.644,0.7,0.29,0.75,-2.53,1.36,-0.96
3.664,0.7,0.28,0.75,-2.75,1.91,-1.83
3.686,0.7,0.28,0.75,-3.1,1.39,-1.04
3.704,0.7,0.27,0.73,-3.05,1.86,-0.53
3.722,0.71,0.28,0.74,-2.61,1.13,-1.07
3.747,0.7,0.27,0.75,-2.6,1.47,-0.7
3.763,0.71,0.27,0.74,-3.16,1.95,-1.94
3.781,0.7,0.28,0.75,-2.5,1.54,-0.67
3.805,0.7,0.28,0.74,-2.6,1.66,-1.22
3.824,0.7,0.28,0.75,-2.37,1.31,-1.57
3.846,0.69,0.28,0.74,-2.81,1.21,-1.04
3.864,0.7,0.28,0.74,-2.76,1.45,-0.89
3.882,0.7,0.27,0.75,-2.72,1.19,-0.43
3.906,0.71,0.28,0.75,-2.66,1.01,-1.39
3.924,0.71,0.28,0.74,-2.4,1.34,-0.87
3.942,0.69,0.28,0.74,-2.75,1.54,-1.69
3.965,0.7,0.28,0.75,-2.55,1.76,-0.89
3.984,0.7,0.28,0.74,-2.37,1.76,-0.73
