timestamp,acce_x,acce_y,acce_z,gyro_x,gyro_y,gyro_z
0.0,0.43,0.95,-0.04,0.15,0.12,-0.93
0.03,0.44,0.95,-0.02,2.17,-0.79,-0.72
0.05,0.43,0.95,-0.03,4.98,-0.69,-1.8
0.07,0.43,0.96,-0.08,5.74,-1.85,-1.45
0.1,0.44,0.96,-0.09,2.78,-1.18,-1.45
0.12,0.43,0.95,-0.1,0.69,-1.97,-2.05
0.15,0.42,0.94,-0.09,-0.87,-1.42,-1.66
0.17,0.43,0.94,-0.06,-1.98,2.46,-0.79
0.19,0.44,0.94,-0.04,1.01,2.29,-0.92
0.22,0.43,0.95,-0.06,1.47,1.69,-1.4
0.24,0.41,0.94,-0.05,2.17,-0.38,-1.33
0.26,0.42,0.94,-0.06,4.43,-0.23,-0.84
0.29,0.43,0.96,-0.08,4.69,0.53,-0.14
0.31,0.43,0.95,-0.11,0.31,-0.5,-0.32
0.34,0.42,0.96,-0.13,-3.37,-0.55,-0.53
0.36,0.42,0.96,-0.14,-10.53,-4.09,1.13
0.39,0.45,0.94,-0.12,-13.05,-6.78,1.24
0.41,0.46,0.94,-0.09,-13.08,-3.73,1.65
0.44,0.47,0.94,-0.08,-11.53,-3.27,-0.67
0.46,0.47,0.94,-0.09,-8.73,-2.72,-3.22
0.49,0.46,0.95,-0.11,-10.44,-7.13,-4.67
0.51,0.46,0.96,-0.15,-16.11,-11.51,-6.37
0.54,0.47,0.96,-0.15,-17.8,-12.92,-7.34
0.56,0.45,0.95,-0.15,-21.33,-14.23,-9.42
0.59,0.35,1.04,-0.17,-28.0,-12.85,-12.7
0.61,0.42,0.94,-0.14,-28.67,-8.79,-12.26
0.64,0.37,0.95,-0.14,-34.29,-11.33,-11.56
0.66,0.33,0.89,-0.24,-41.08,-25.83,-6.61
0.69,0.36,0.93,-0.29,-58.06,-25.82,-0.89
0.71,0.39,0.89,-0.2,-78.31,-12.87,6.96
0.74,0.37,0.83,-0.13,-88.5,-12.67,10.61
0.76,0.42,0.84,-0.12,-97.69,-9.88,18.92
0.79,0.42,0.84,-0.06,-114.09,-1.33,23.39
0.81,0.44,0.78,0.07,-129.63,15.34,29.08
0.84,0.45,0.73,0.16,-135.31,18.2,26.67
0.86,0.37,0.68,0.21,-122.7,-6.56,21.19
0.89,0.43,0.78,0.15,-128.55,-19.77,29.66
0.91,0.44,0.74,0.21,-159.53,-17.77,32.76
0.94,0.46,0.66,0.26,-159.8,-33.24,29.82
0.96,0.55,0.67,0.3,-171.56,-19.65,33.92
0.99,0.55,0.62,0.39,-189.25,-2.43,34.56
1.01,0.5,0.47,0.53,-190.85,-15.45,25.48
1.04,0.55,0.48,0.5,-185.48,-23.92,28.15
1.06,0.67,0.39,0.56,-187.04,-3.5,22.11
1.09,0.64,0.3,0.65,-188.38,11.73,15.74
1.11,0.7,0.17,0.74,-186.75,30.0,11.88
1.14,0.75,0.11,0.82,-184.12,55.82,4.23
1.16,0.74,0.02,0.98,-172.98,79.73,-8.73
1.19,0.68,-0.04,1.15,-152.9,91.77,-16.17
1.21,0.49,-0.06,1.33,-119.1,90.79,-26.6
1.24,0.4,-0.04,1.31,-93.94,65.91,-26.02
1.26,0.43,-0.06,1.23,-62.79,41.45,-23.6
1.29,0.36,-0.1,1.23,-46.49,30.37,-23.37
1.31,0.29,-0.09,1.14,-29.85,6.93,-28.43
1.34,0.25,-0.05,1.07,-21.66,-12.15,-28.61
1.36,0.27,-0.01,1.05,-13.57,-16.43,-24.81
1.39,0.28,-0.01,1.08,-7.47,-13.68,-16.99
1.41,0.34,-0.01,1.06,5.4,-22.76,-5.59
1.44,0.42,-0.03,1.02,12.84,-34.41,-0.85
1.46,0.56,-0.03,0.92,17.68,-34.56,-3.11
1.49,0.58,-0.03,0.86,13.47,-27.63,-6.87
1.51,0.5,-0.04,0.85,5.51,-20.98,-3.45
1.54,0.48,-0.05,0.89,3.92,-17.8,0.7
1.56,0.47,-0.06,0.91,10.03,-22.9,-9.59
1.59,0.41,-0.04,0.88,9.91,-31.11,-10.37
1.61,0.43,-0.01,0.84,2.35,-18.87,-2.85
5.75,-0.05,-0.12,0.95,-7.65,0.64,-3.19
5.77,-0.03,-0.13,0.97,-4.6,-4.26,-2.56
5.8,-0.02,-0.11,0.93,-2.49,-1.76,-5.22
5.82,-0.04,-0.12,0.93,-3.59,-1.6,-3.36
5.85,-0.02,-0.12,0.94,-1.76,-5.56,-4.17
5.87,-0.02,-0.12,0.95,-2.58,-1.45,-3.08
5.9,-0.03,-0.13,0.97,2.24,-1.95,-3.97
5.92,-0.04,-0.14,0.99,6.7,-11.53,-4.49
5.95,-0.05,-0.11,0.96,2.4,-22.58,0.35
5.97,-0.0,-0.12,0.95,2.72,-27.86,0.26
6.0,0.01,-0.13,0.95,2.24,-21.54,-1.59
6.02,-0.01,-0.12,0.99,4.34,-24.17,0.12
6.05,-0.0,-0.11,0.97,7.15,-48.02,4.31
6.07,0.07,-0.11,0.96,8.67,-43.4,6.56
6.1,0.1,-0.12,0.98,13.95,-15.19,6.78
6.12,0.09,-0.11,0.98,17.19,-4.17,5.15
6.15,0.08,-0.08,0.93,17.77,-2.69,3.73
6.17,0.1,-0.08,0.93,16.35,-2.92,3.57
6.19,0.1,-0.07,0.92,14.26,0.27,2.76
6.22,0.09,-0.06,0.93,11.08,-2.72,1.42
6.24,0.1,-0.05,0.94,10.79,-1.48,0.4
6.26,0.09,-0.05,0.96,9.6,-1.63,0.82
6.29,0.08,-0.03,0.97,10.56,-4.41,1.22
6.31,0.07,-0.04,0.98,10.24,-12.18,1.5
6.34,0.1,-0.03,0.99,10.85,-11.39,3.51
6.36,0.12,-0.04,0.99,14.21,-5.42,3.25
6.39,0.1,-0.02,0.99,17.65,-1.83,2.2
6.41,0.1,-0.01,0.98,16.26,-2.29,2.29
6.43,0.1,-0.01,0.98,16.49,-9.66,1.82
6.46,0.12,-0.0,0.97,17.76,-11.04,3.02
6.48,0.14,0.01,0.97,18.53,-7.47,2.49
6.5,0.13,0.02,0.96,19.51,-4.31,3.65
6.53,0.14,0.03,0.93,18.02,-13.39,2.64
6.55,0.16,0.04,0.92,15.92,-11.5,2.23
6.57,0.16,0.06,0.93,13.88,-6.73,0.93
6.6,0.17,0.06,0.94,16.18,-0.61,0.31
6.62,0.15,0.07,0.92,13.53,-1.16,-1.42
6.64,0.14,0.07,0.96,10.95,-7.6,-1.42
6.67,0.15,0.07,0.97,12.23,-12.46,-0.5
6.69,0.16,0.08,0.93,12.06,-12.21,-1.97
6.72,0.16,0.08,0.96,12.53,-5.48,-1.25
6.74,0.16,0.08,0.97,14.44,-2.75,-1.24
6.76,0.16,0.09,0.99,16.98,-3.8,-0.44
6.79,0.17,0.11,0.95,18.06,-4.85,0.23
6.81,0.17,0.11,0.97,17.39,-4.29,0.03
6.83,0.18,0.11,1.0,19.31,-1.74,0.14
6.86,0.17,0.12,0.96,22.73,-2.5,0.9
6.88,0.19,0.14,0.95,21.85,-0.56,1.02
6.9,0.17,0.15,0.97,21.15,0.58,1.28
6.93,0.17,0.15,0.96,23.45,-0.32,1.22
6.95,0.18,0.17,0.95,24.03,0.18,1.62
6.97,0.18,0.17,0.94,23.45,1.69,0.05
7.0,0.18,0.19,0.95,25.89,0.24,1.33
7.02,0.17,0.2,0.92,24.89,-1.15,0.72
7.04,0.18,0.21,0.93,25.56,0.02,1.91
7.07,0.18,0.23,0.91,24.61,-1.11,0.27
7.09,0.18,0.24,0.92,24.41,1.02,0.99
7.11,0.18,0.25,0.93,23.3,4.38,0.31
7.14,0.17,0.26,0.91,23.69,-0.2,1.36
7.16,0.18,0.26,0.9,23.16,1.07,1.91
7.18,0.18,0.29,0.91,23.16,1.16,1.42
7.21,0.19,0.3,0.91,24.08,3.3,2.61
7.23,0.18,0.3,0.91,25.16,2.44,2.4
7.25,0.19,0.31,0.9,25.68,1.1,2.34
7.28,0.19,0.32,0.88,22.37,4.47,1.36
7.3,0.18,0.33,0.9,22.99,2.11,1.16
7.32,0.19,0.33,0.9,23.65,1.95,1.86
7.35,0.19,0.35,0.9,25.94,2.27,2.15
7.37,0.19,0.36,0.88,25.54,2.6,1.85
7.39,0.18,0.37,0.87,23.6,1.97,2.21
7.42,0.18,0.37,0.87,26.02,1.63,3.13
7.44,0.19,0.4,0.84,24.63,2.52,3.01
7.46,0.19,0.4,0.83,21.63,2.56,1.91
7.49,0.18,0.4,0.84,18.63,2.09,1.79
7.51,0.19,0.41,0.83,19.44,1.59,2.61
7.53,0.19,0.42,0.83,18.85,2.12,2.81
7.56,0.19,0.43,0.85,18.46,1.68,2.26
7.58,0.19,0.43,0.83,18.29,2.02,2.47
7.6,0.18,0.43,0.83,17.69,1.3,2.49
7.63,0.19,0.46,0.83,18.15,1.48,3.27
7.65,0.18,0.45,0.8,17.91,0.58,3.28
7.67,0.19,0.46,0.82,18.4,0.66,3.19
7.7,0.19,0.48,0.81,17.16,0.85,4.0
7.72,0.18,0.48,0.82,17.07,1.69,3.98
7.74,0.18,0.49,0.84,17.47,1.62,4.79
7.77,0.19,0.51,0.83,18.43,1.04,4.37
7.79,0.17,0.52,0.83,16.87,-0.08,4.92
7.81,0.18,0.52,0.85,18.38,-1.28,6.02
7.84,0.21,0.53,0.82,20.15,2.29,5.85
7.86,0.21,0.54,0.81,18.78,3.1,4.38
7.88,0.21,0.54,0.82,18.41,3.62,4.6
7.91,0.2,0.54,0.82,20.99,4.03,5.13
7.93,0.21,0.54,0.8,22.72,3.59,5.1
7.95,0.24,0.55,0.77,21.86,5.37,6.02
7.98,0.2,0.54,0.79,25.45,2.7,5.71
8.0,0.21,0.56,0.77,26.2,3.89,6.02
8.02,0.2,0.57,0.75,24.98,1.56,5.54
8.05,0.21,0.59,0.72,24.38,0.73,5.16
8.07,0.21,0.59,0.7,23.37,0.4,5.82
8.09,0.2,0.59,0.7,23.69,-0.67,6.66
8.12,0.22,0.61,0.68,21.82,1.85,6.38
8.14,0.22,0.62,0.67,18.63,0.31,5.85
8.16,0.22,0.63,0.67,16.03,0.92,5.85
8.19,0.21,0.64,0.7,14.84,4.03,6.35
8.21,0.21,0.65,0.72,15.83,1.56,6.34
8.23,0.22,0.65,0.74,17.07,1.5,6.89
8.26,0.2,0.66,0.77,19.89,3.89,7.19
8.28,0.21,0.66,0.76,22.08,1.08,7.5
8.3,0.22,0.67,0.74,24.61,0.9,8.06
8.33,0.23,0.67,0.68,27.92,1.1,8.73
8.35,0.24,0.69,0.65,27.04,0.84,9.04
8.37,0.25,0.7,0.63,24.27,1.83,8.24
8.4,0.25,0.69,0.64,22.84,0.53,7.76
8.42,0.25,0.7,0.63,22.44,1.73,8.0
8.44,0.26,0.71,0.62,22.49,3.8,7.57
8.47,0.26,0.72,0.6,19.42,2.49,6.61
8.49,0.26,0.72,0.59,20.52,-0.26,6.78
8.51,0.28,0.73,0.59,21.4,0.46,6.55
8.54,0.26,0.72,0.62,23.88,-3.13,6.34
8.56,0.28,0.73,0.58,25.59,-1.98,5.8
8.58,0.28,0.75,0.55,23.54,-0.58,6.03
8.61,0.28,0.75,0.57,21.6,-1.62,4.96
8.63,0.28,0.76,0.57,22.14,-0.87,4.67
8.65,0.27,0.76,0.56,22.7,1.3,4.64
8.68,0.28,0.76,0.55,24.38,4.47,4.34
8.7,0.27,0.77,0.54,24.55,5.18,4.2
8.72,0.28,0.78,0.51,24.44,5.24,3.83
8.75,0.26,0.8,0.5,20.06,4.37,3.56
8.77,0.27,0.79,0.5,17.92,0.79,3.76
8.79,0.28,0.8,0.51,16.2,2.82,3.65
8.82,0.27,0.81,0.53,14.05,2.46,3.62
8.84,0.28,0.8,0.53,15.51,2.41,4.2
8.86,0.28,0.81,0.53,16.02,3.68,4.4
8.89,0.27,0.82,0.51,16.47,1.71,3.92
8.91,0.28,0.82,0.5,17.69,2.11,3.63
8.93,0.28,0.82,0.51,19.89,2.96,4.46
8.96,0.29,0.84,0.46,19.42,2.98,3.82
8.98,0.29,0.85,0.48,15.07,4.18,3.24
9.0,0.27,0.85,0.5,12.81,4.06,4.26
9.03,0.27,0.85,0.53,14.79,3.3,4.72
9.05,0.28,0.86,0.51,20.89,1.63,6.35
9.07,0.27,0.85,0.49,24.41,-1.98,7.22
9.1,0.31,0.85,0.41,27.91,-6.44,7.59
9.12,0.34,0.87,0.35,27.65,-3.02,7.48
9.14,0.34,0.88,0.32,23.57,-1.86,5.48
9.17,0.34,0.87,0.31,17.36,-0.5,2.46
9.19,0.34,0.88,0.33,13.76,2.26,1.62
9.21,0.33,0.87,0.36,12.12,2.47,1.1
9.24,0.31,0.87,0.38,10.44,1.98,1.02
9.26,0.32,0.87,0.37,10.75,0.95,0.84
9.28,0.31,0.88,0.37,9.57,1.5,0.37
9.31,0.32,0.89,0.38,10.7,1.33,0.29
9.33,0.31,0.89,0.38,10.78,-0.14,0.09
9.35,0.32,0.9,0.37,10.96,-1.39,0.35
9.38,0.32,0.9,0.35,12.69,-0.17,0.26
9.4,0.32,0.9,0.37,13.05,0.23,-0.44
9.42,0.32,0.9,0.35,14.73,-2.89,-0.76
9.45,0.33,0.9,0.3,14.53,-8.81,-0.4
9.47,0.33,0.89,0.28,11.71,-9.37,-0.52
9.49,0.33,0.9,0.32,10.6,-2.29,-1.15
9.52,0.31,0.89,0.35,16.46,-4.75,-0.6
9.54,0.31,0.9,0.35,20.37,-5.13,0.38
9.56,0.31,0.91,0.31,22.93,-5.4,1.05
9.59,0.31,0.93,0.27,20.93,-8.75,1.16
9.61,0.33,0.93,0.23,20.4,-8.76,2.06
9.63,0.34,0.92,0.24,19.77,-7.34,1.07
9.66,0.32,0.92,0.2,15.01,-4.79,1.04
9.68,0.33,0.92,0.2,14.17,-5.07,1.13
9.7,0.35,0.92,0.21,9.68,0.03,0.95
9.73,0.32,0.91,0.23,9.56,-0.34,2.08
9.75,0.34,0.92,0.22,10.34,-0.64,2.03
9.77,0.34,0.92,0.24,7.62,2.87,1.69
9.8,0.33,0.91,0.25,8.53,0.24,2.38
9.82,0.34,0.92,0.22,9.33,0.7,2.17
9.84,0.34,0.93,0.23,9.16,4.76,1.97
9.87,0.33,0.93,0.25,11.31,4.46,2.55
9.89,0.34,0.93,0.22,10.96,4.4,3.1
9.91,0.34,0.94,0.21,9.56,6.93,3.89
9.94,0.34,0.95,0.2,8.92,5.22,3.86
9.96,0.36,0.95,0.19,7.39,6.37,3.37
9.98,0.36,0.95,0.2,4.67,8.23,3.22
10.01,0.37,0.94,0.18,5.25,7.08,3.33
10.03,0.37,0.95,0.19,5.48,7.91,2.63
10.05,0.37,0.94,0.19,6.0,7.63,2.14
10.08,0.37,0.94,0.17,6.89,4.84,1.56
10.1,0.36,0.94,0.19,6.7,4.17,2.09
10.12,0.35,0.93,0.17,8.21,2.95,2.08
10.15,0.37,0.94,0.15,8.4,3.08,1.86
10.17,0.35,0.95,0.17,7.53,3.97,2.26
10.19,0.37,0.95,0.18,8.4,4.06,2.46
10.22,0.35,0.95,0.15,7.89,3.4,1.6
10.24,0.36,0.95,0.15,7.21,5.89,1.56
10.26,0.35,0.95,0.16,9.02,5.39,1.76
10.29,0.36,0.95,0.14,6.84,4.05,1.39
10.31,0.36,0.94,0.16,7.86,5.16,1.88
10.33,0.36,0.95,0.14,9.01,4.61,1.79
10.36,0.35,0.95,0.14,7.85,4.18,2.14
10.38,0.36,0.94,0.14,9.34,4.35,2.23
10.4,0.35,0.95,0.11,8.84,-0.24,2.23
10.43,0.38,0.95,0.11,7.1,5.22,1.28
10.45,0.33,0.93,0.13,6.38,-0.58,2.18
10.47,0.36,0.94,0.14,8.46,-2.24,2.56
10.5,0.36,0.95,0.11,8.56,-4.23,1.94
10.52,0.37,0.94,0.1,9.8,-1.71,2.05
10.54,0.37,0.95,0.11,10.9,3.4,2.31
10.57,0.35,0.96,0.07,11.66,0.08,2.09
10.59,0.36,0.96,0.07,10.0,-1.98,2.93
10.61,0.36,0.96,0.08,10.31,-1.42,4.06
10.64,0.37,0.96,0.05,9.44,-3.89,3.69
10.66,0.39,0.96,0.05,7.91,-2.61,3.6
10.68,0.39,0.96,0.05,6.84,1.56,2.99
