timestamp,acce_x,acce_y,acce_z,gyro_x,gyro_y,gyro_z
0.001,0.12,0.76,0.71,-0.17,1.89,-0.31
0.002,0.12,0.76,0.7,2.53,3.24,-0.41
0.004,0.11,0.77,0.68,5.98,5.18,-0.26
0.005,0.08,0.78,0.66,7.3,4.98,-0.05
0.006,0.08,0.79,0.63,7.01,4.2,-0.78
0.008,0.06,0.81,0.6,6.24,3.63,-0.29
0.009,0.06,0.81,0.61,2.9,2.23,-0.47
0.011,0.05,0.81,0.61,2.32,0.06,0.92
0.012,0.07,0.81,0.6,0.73,-0.08,0.38
0.013,0.08,0.8,0.61,-0.37,-2.12,0.12
0.014,0.09,0.79,0.63,-0.76,-5.71,-0.23
0.015,0.1,0.79,0.65,-0.18,-4.2,0.09
0.016,0.09,0.79,0.65,0.75,-1.39,-0.24
0.018,0.09,0.78,0.65,0.37,-0.67,0.18
0.019,0.1,0.77,0.65,1.63,0.09,-0.35
0.02,0.07,0.78,0.66,3.95,0.82,0.84
0.021,0.08,0.8,0.62,4.17,1.39,0.52
0.022,0.07,0.8,0.61,2.84,-0.24,0.29
0.023,0.07,0.81,0.61,1.74,-0.06,1.6
0.024,0.08,0.8,0.61,-0.66,-0.02,0.43
0.025,0.08,0.81,0.62,0.29,-1.02,1.53
0.026,0.09,0.79,0.62,-0.29,-1.1,-0.27
0.027,0.1,0.79,0.63,1.11,-2.92,0.12
0.028,0.09,0.79,0.64,1.53,-0.53,0.43
0.029,0.09,0.79,0.64,2.05,0.31,-0.23
0.03,0.08,0.8,0.62,2.82,-0.14,1.33
0.031,0.08,0.8,0.61,0.08,1.01,0.38
0.032,0.08,0.8,0.62,0.73,-0.37,1.04
0.033,0.08,0.79,0.62,-0.12,0.11,0.37
0.034,0.09,0.8,0.64,-0.24,-0.29,0.38
0.035,0.1,0.78,0.63,-0.63,-0.2,0.75
0.036,0.09,0.78,0.63,0.92,0.46,-0.2
0.037,0.09,0.79,0.64,-0.18,-0.34,0.2
0.038,0.09,0.77,0.64,1.05,-0.56,-0.23
0.039,0.08,0.79,0.63,1.36,2.18,1.54
0.04,0.08,0.8,0.61,0.7,2.2,0.05
0.04,0.07,0.81,0.58,-0.69,0.79,1.48
0.041,0.07,0.82,0.55,-4.26,3.53,3.07
0.042,0.04,0.84,0.51,-6.56,2.73,3.11
0.043,0.05,0.84,0.49,-12.32,-1.27,3.92
0.044,0.07,0.83,0.46,-17.77,-2.98,3.86
0.045,0.07,0.84,0.41,-22.47,-0.24,5.97
0.046,0.04,0.88,0.3,-30.58,5.01,6.7
0.047,0.1,0.94,-0.07,-53.34,3.6,9.31
0.047,0.02,0.9,0.25,-63.07,-13.94,3.74
0.048,0.09,0.81,0.24,-71.91,-23.79,4.99
0.049,0.12,0.76,0.18,-84.31,-14.79,8.29
0.05,0.14,0.71,0.23,-100.52,-10.98,6.92
0.051,0.19,0.62,0.31,-113.24,-17.69,2.85
0.052,0.18,0.53,0.35,-115.11,-18.63,2.41
0.052,0.17,0.46,0.36,-125.04,-10.2,0.99
0.053,0.09,0.42,0.44,-130.9,-9.6,0.41
0.054,0.11,0.34,0.48,-131.48,-11.88,4.03
0.055,0.09,0.28,0.59,-135.8,-13.04,2.52
0.056,0.1,0.2,0.64,-131.73,-10.6,4.24
0.057,0.04,0.22,0.62,-128.27,5.86,13.77
0.057,0.04,0.17,0.75,-140.18,15.08,14.37
0.058,0.04,0.05,0.92,-135.74,-1.57,10.98
0.059,0.1,-0.02,0.96,-118.34,1.42,19.57
0.06,0.05,-0.01,1.0,-111.54,33.89,36.95
0.061,0.09,-0.03,1.05,-111.34,57.65,41.88
0.061,0.1,-0.05,1.07,-106.87,52.78,35.44
0.062,0.08,-0.11,1.18,-105.59,48.18,32.53
0.063,0.11,-0.19,1.29,-99.33,56.18,28.93
0.064,0.08,-0.19,1.3,-86.02,57.53,22.69
0.065,0.01,-0.18,1.25,-80.23,57.11,15.01
0.065,-0.07,-0.21,1.28,-79.94,42.52,5.63
0.066,-0.06,-0.25,1.35,-71.6,14.29,0.78
0.067,0.01,-0.26,1.31,-57.82,2.7,2.73
0.068,0.04,-0.22,1.26,-57.25,16.52,4.73
0.069,0.0,-0.2,1.22,-57.82,24.46,6.29
0.069,-0.01,-0.2,1.17,-58.6,22.38,4.81
0.07,-0.05,-0.26,1.18,-61.86,14.81,5.77
0.071,0.03,-0.35,1.27,-62.37,11.91,11.53
0.072,0.13,-0.45,1.33,-49.19,20.56,7.4
0.073,0.09,-0.41,1.28,-29.66,33.36,-7.3
0.073,-0.05,-0.33,1.2,-19.53,17.15,-12.2
0.074,0.02,-0.33,1.18,-16.81,2.17,-16.21
0.075,0.05,-0.32,1.13,-11.4,11.01,-15.62
0.076,-0.04,-0.24,1.04,-14.26,29.39,-6.87
0.077,-0.14,-0.24,1.0,-24.61,32.5,-2.21
0.077,-0.17,-0.29,1.04,-24.89,11.56,-1.08
0.078,-0.12,-0.35,1.07,-19.59,-0.61,-4.92
0.079,-0.09,-0.32,1.06,-16.89,-0.14,-7.53
0.08,-0.05,-0.23,0.94,10.64,4.53,-1.05
0.081,-0.06,-0.21,0.94,5.91,1.27,-0.55
0.081,-0.02,-0.22,0.93,2.27,-0.52,-1.97
0.093,-0.05,-0.24,0.96,1.3,0.14,-1.94
0.116,-0.04,-0.23,0.95,1.6,0.72,-1.39
0.135,-0.03,-0.24,0.97,1.63,-0.17,-1.56
0.153,-0.04,-0.24,0.97,4.92,-0.49,-1.77
0.171,-0.04,-0.21,0.96,0.93,0.52,-1.5
0.195,-0.04,-0.23,0.96,0.09,-2.15,-2.49
0.213,-0.05,-0.22,0.96,0.27,-3.92,-0.89
0.231,-0.03,-0.24,0.96,-1.76,-1.15,-0.5
0.255,-0.03,-0.24,0.98,-0.02,-0.72,0.31
0.273,-0.01,-0.23,0.97,0.9,0.37,0.7
0.292,-0.03,-0.24,0.96,-0.47,0.29,-1.91
0.315,-0.03,-0.23,0.97,-1.94,-2.29,-0.92
0.333,-0.02,-0.25,0.99,-1.59,-0.46,-1.36
0.351,-0.04,-0.25,0.98,-0.18,-0.5,-1.4
0.375,-0.03,-0.25,0.98,-0.11,-2.35,-0.9
0.393,-0.02,-0.25,0.98,-1.71,-0.79,-1.6
0.411,-0.02,-0.27,1.0,-0.49,-1.56,-1.95
0.435,-0.03,-0.26,0.99,-0.23,-0.87,-1.89
0.453,-0.02,-0.26,0.99,1.11,1.08,-0.49
0.471,-0.02,-0.25,0.98,1.82,2.5,-0.56
0.495,-0.02,-0.25,0.98,0.96,1.27,-1.83
0.513,-0.02,-0.23,0.97,1.4,0.35,-1.6
0.532,-0.03,-0.24,0.97,-0.98,1.65,-1.95
0.555,-0.02,-0.26,0.99,1.6,1.05,-1.16
0.573,-0.02,-0.25,0.97,3.02,2.0,-1.11
0.592,0.0,-0.24,0.97,1.85,5.97,-1.44
0.615,-0.01,-0.27,0.97,1.95,3.76,-3.04
0.634,-0.03,-0.24,0.96,2.76,1.74,-3.31
0.652,-0.04,-0.24,0.95,-0.06,4.06,-2.93
0.676,-0.05,-0.25,0.95,-1.42,2.21,-3.1
0.694,-0.05,-0.26,0.96,-1.69,-0.95,-2.03
0.712,-0.05,-0.26,0.96,-2.92,0.38,-2.35
0.736,-0.06,-0.26,0.98,-4.08,-1.05,-2.93
0.754,-0.05,-0.28,0.99,-2.29,-3.16,-0.92
0.772,-0.03,-0.27,1.0,-1.65,-0.4,-1.19
0.795,-0.04,-0.26,0.99,-1.69,0.79,-0.9
0.814,-0.04,-0.26,0.99,-1.13,-0.21,-1.04
0.833,-0.03,-0.26,0.98,-2.15,-1.18,-0.11
0.855,-0.03,-0.27,1.0,-0.08,-1.18,-0.41
0.874,-0.03,-0.26,0.99,1.4,-0.69,-0.87
0.892,-0.04,-0.25,0.97,1.18,-1.54,-0.93
0.915,-0.03,-0.24,0.97,1.33,-1.11,-0.69
0.934,-0.03,-0.24,0.96,0.21,0.63,-0.55
0.952,-0.02,-0.24,0.96,0.0,1.27,-0.23
0.976,-0.04,-0.25,0.97,-0.08,1.66,-0.03
0.994,-0.06,-0.24,0.96,-0.37,-1.01,-1.02
1.012,-0.05,-0.26,0.97,0.0,-2.76,0.02
1.036,-0.04,-0.25,0.97,1.22,-0.4,2.11
1.054,-0.04,-0.26,0.97,-0.6,0.87,2.18
1.073,-0.03,-0.27,0.99,-0.23,-1.3,1.82
1.096,-0.02,-0.26,0.97,1.74,-0.26,2.0
1.114,-0.04,-0.26,0.97,0.75,0.12,2.31
1.133,-0.03,-0.26,0.98,1.31,-0.35,2.82
1.151,-0.03,-0.26,0.98,-0.06,1.91,2.14
1.175,-0.03,-0.26,0.98,1.28,1.66,2.11
1.193,-0.05,-0.25,0.97,0.41,-0.72,1.6
1.212,-0.04,-0.27,0.96,0.24,-0.64,1.48
1.235,-0.05,-0.27,0.98,-0.08,-1.13,1.53
1.253,-0.04,-0.29,0.99,1.33,-2.72,1.95
1.272,-0.03,-0.29,0.99,3.13,-2.03,1.48
1.295,-0.02,-0.28,0.98,1.54,-0.82,1.53
1.314,-0.02,-0.28,0.98,1.33,0.38,1.95
1.332,-0.03,-0.27,0.97,2.35,0.53,1.08
1.356,-0.06,-0.25,1.03,-1.8,2.31,-1.22
1.374,-0.04,-0.27,0.98,0.29,1.88,0.11
1.393,-0.04,-0.26,1.0,3.28,-1.94,1.27
1.411,-0.03,-0.26,0.99,4.08,-1.48,2.81
1.435,-0.04,-0.26,1.01,4.67,-1.8,2.37
1.453,-0.04,-0.27,1.01,6.76,-2.93,2.15
1.471,-0.04,-0.26,1.01,7.25,-2.24,2.46
1.495,-0.06,-0.25,1.04,6.92,-3.89,2.78
1.513,-0.03,-0.25,1.07,8.69,-6.49,2.63
1.532,0.01,-0.25,1.08,9.89,-7.04,2.44
1.555,0.01,-0.25,1.13,10.98,-3.48,0.82
1.574,0.01,-0.25,1.1,16.67,-5.86,1.34
1.592,0.01,-0.27,1.08,18.4,-5.92,-0.4
1.616,0.01,-0.26,1.08,21.98,-6.89,-0.18
1.634,0.0,-0.26,1.07,23.27,-6.61,-0.24
1.652,0.0,-0.25,1.08,25.97,-7.39,-0.26
1.676,0.02,-0.23,1.05,28.18,-7.28,-1.21
1.694,0.0,-0.22,1.04,27.36,-7.44,-3.33
1.712,-0.0,-0.22,1.04,27.79,-10.46,-3.1
1.736,-0.02,-0.21,1.04,28.24,-12.49,-2.79
1.754,-0.01,-0.21,1.05,29.51,-14.06,-1.83
1.772,0.02,-0.21,1.05,30.46,-14.23,-3.89
1.795,0.01,-0.2,1.05,32.27,-15.05,-4.41
1.814,0.01,-0.19,1.05,32.52,-13.88,-4.41
1.832,0.02,-0.17,1.04,32.66,-13.97,-5.57
1.855,0.01,-0.17,1.04,33.76,-16.93,-4.72
1.873,0.01,-0.16,1.05,34.58,-18.61,-4.66
1.892,0.03,-0.14,1.05,35.39,-20.41,-4.72
1.915,0.05,-0.12,1.06,37.3,-21.98,-6.05
1.933,0.05,-0.09,1.09,37.28,-23.13,-5.77
1.951,0.07,-0.07,1.09,36.7,-22.08,-4.7
1.974,0.11,-0.08,1.1,38.27,-18.84,-2.9
1.993,0.1,-0.08,1.11,41.33,-15.5,-3.63
2.011,0.09,-0.06,1.09,46.72,-15.42,-2.93
2.035,0.08,-0.03,1.06,46.72,-15.54,-3.07
2.053,0.07,-0.01,1.03,48.05,-17.98,-2.55
2.071,0.07,0.01,1.01,48.69,-19.08,-3.74
2.094,0.03,0.04,0.99,49.48,-22.5,-3.44
2.113,0.05,0.07,0.95,48.67,-23.66,1.21
2.131,0.09,0.06,0.97,44.55,-20.4,3.13
2.155,0.13,0.05,0.98,46.46,-21.68,2.18
2.173,0.14,0.07,0.96,47.33,-20.75,1.27
2.191,0.15,0.1,0.94,47.07,-13.98,2.61
2.215,0.15,0.11,0.93,44.18,-6.46,5.33
2.233,0.15,0.14,0.94,40.49,-2.31,6.56
2.252,0.18,0.12,0.96,38.76,-3.56,3.91
2.275,0.18,0.12,0.99,42.35,-9.66,-0.23
2.294,0.18,0.14,0.98,45.28,-10.85,-2.63
2.312,0.19,0.16,0.96,45.45,-7.47,-3.24
2.336,0.17,0.18,0.95,44.46,-6.44,-2.96
2.354,0.17,0.19,0.95,43.13,-6.9,-4.17
2.373,0.17,0.21,0.91,41.92,-6.7,-4.64
2.391,0.17,0.24,0.91,40.96,-4.58,-3.98
2.414,0.18,0.26,0.91,38.35,-2.72,-2.14
2.433,0.18,0.27,0.92,36.08,-3.5,-3.07
2.451,0.18,0.26,0.93,36.67,-6.24,-5.01
2.475,0.17,0.26,0.94,40.46,-9.6,-5.56
2.493,0.19,0.3,0.93,41.21,-9.16,-6.31
2.512,0.2,0.3,0.95,40.73,-10.03,-7.45
2.535,0.23,0.32,0.96,40.46,-9.63,-7.98
2.553,0.23,0.34,0.94,41.5,-3.77,-8.96
2.572,0.19,0.38,0.91,40.7,0.87,-8.06
2.595,0.15,0.4,0.89,37.76,-2.84,-7.85
2.614,0.16,0.4,0.91,35.62,-10.09,-9.86
2.632,0.18,0.39,0.93,36.85,-14.44,-10.61
2.656,0.2,0.38,0.95,40.37,-14.29,-11.19
2.674,0.2,0.41,0.91,42.58,-12.14,-10.4
2.692,0.2,0.43,0.9,37.54,-6.32,-8.66
2.715,0.18,0.44,0.89,35.56,-2.27,-6.78
2.734,0.18,0.45,0.91,35.05,-4.12,-7.27
2.752,0.22,0.45,0.9,37.48,-7.57,-8.92
2.776,0.23,0.47,0.89,38.2,-5.56,-9.77
2.794,0.23,0.49,0.87,38.03,-3.21,-10.61
2.812,0.21,0.51,0.86,38.26,-1.37,-11.71
2.836,0.2,0.52,0.83,36.98,-1.88,-13.39
2.854,0.19,0.5,0.84,37.02,-3.48,-14.21
2.873,0.16,0.51,0.8,39.4,-2.87,-12.7
2.891,0.15,0.54,0.78,37.76,-0.85,-10.72
2.915,0.18,0.54,0.77,33.08,5.11,-12.69
2.933,0.14,0.55,0.79,36.29,-6.89,-12.03
2.951,0.12,0.57,0.8,38.03,-9.63,-12.37
2.974,0.13,0.57,0.8,39.11,-10.79,-11.56
2.993,0.14,0.58,0.79,40.31,-11.48,-10.03
3.011,0.17,0.59,0.79,41.19,-8.05,-8.89
3.034,0.17,0.61,0.8,40.4,-2.43,-8.46
3.053,0.17,0.62,0.79,41.79,-0.47,-7.42
3.071,0.17,0.63,0.78,44.34,2.75,-5.51
3.095,0.16,0.66,0.76,44.12,6.82,-2.73
3.113,0.16,0.66,0.74,43.37,9.6,-0.9
3.132,0.17,0.67,0.74,44.11,12.31,0.63
3.155,0.16,0.68,0.72,44.41,13.86,1.22
3.174,0.14,0.7,0.68,44.99,14.64,2.67
3.192,0.16,0.71,0.67,41.89,16.52,4.34
3.211,0.16,0.72,0.67,41.27,17.37,4.29
3.234,0.14,0.74,0.65,39.85,16.02,5.07
3.253,0.13,0.74,0.63,35.08,19.39,5.21
3.271,0.15,0.75,0.62,33.19,20.55,2.47
3.295,0.15,0.75,0.61,31.62,21.98,1.76
3.313,0.1,0.78,0.57,28.09,25.18,4.9
3.333,0.09,0.78,0.59,24.64,24.69,8.96
3.356,0.09,0.78,0.6,27.24,20.27,10.0
3.374,0.1,0.8,0.6,28.18,15.13,7.82
3.393,0.1,0.82,0.58,27.88,10.31,6.5
3.411,0.1,0.82,0.55,25.3,7.69,6.32
3.432,0.1,0.84,0.5,22.37,8.17,9.42
3.452,0.12,0.84,0.52,17.42,8.49,9.82
3.472,0.12,0.85,0.51,15.05,6.55,9.05
3.492,0.12,0.84,0.52,12.63,5.22,6.89
3.512,0.11,0.83,0.52,12.46,-0.24,3.51
3.536,0.11,0.84,0.5,12.58,-5.63,2.46
3.554,0.14,0.85,0.48,9.39,-5.47,4.06
3.572,0.15,0.84,0.49,7.19,-5.92,4.32
3.592,0.17,0.83,0.49,6.76,-4.56,3.19
3.612,0.14,0.85,0.48,5.18,-1.11,4.4
3.632,0.16,0.83,0.51,1.6,-2.49,2.79
3.652,0.15,0.81,0.53,3.91,-6.37,1.66
3.672,0.17,0.82,0.54,2.29,-2.66,1.44
3.692,0.17,0.82,0.53,2.38,1.66,3.45
3.711,0.17,0.81,0.53,3.37,3.24,3.27
3.734,0.14,0.85,0.51,2.26,4.12,3.08
3.753,0.15,0.85,0.5,0.69,3.8,1.98
3.772,0.12,0.85,0.53,-1.4,0.67,3.15
3.792,0.14,0.83,0.57,-3.42,-0.09,2.18
3.816,0.17,0.82,0.61,-1.45,-2.99,1.6
3.834,0.17,0.82,0.6,1.21,-1.44,0.95
3.852,0.15,0.83,0.6,1.07,2.14,2.82
3.871,0.15,0.83,0.59,0.73,3.47,2.09
3.894,0.13,0.84,0.58,0.82,1.01,1.05
3.913,0.15,0.83,0.59,-1.18,-0.4,1.07
3.931,0.15,0.82,0.6,-0.76,0.44,1.04
3.952,0.15,0.82,0.6,-0.29,1.47,1.57
3.972,0.14,0.81,0.59,1.42,3.6,2.53
