timestamp,acce_x,acce_y,acce_z,gyro_x,gyro_y,gyro_z
0.003,0.08,0.24,1.01,1.69,-8.63,-4.35
0.011,0.12,0.25,1.03,-5.02,-4.06,-6.99
0.02,0.15,0.22,0.96,-1.57,-9.02,-4.6
0.027,0.18,0.2,0.97,0.72,-6.78,-1.51
0.035,0.16,0.2,0.96,1.89,1.65,-2.23
0.043,0.13,0.2,0.97,5.57,6.06,-4.55
0.052,0.11,0.22,1.0,4.41,2.99,-6.23
0.059,0.15,0.22,0.99,3.47,-2.95,-4.76
0.067,0.18,0.22,0.98,2.81,-2.23,-1.88
0.075,0.15,0.23,0.98,7.94,-3.36,-0.7
0.083,0.17,0.27,1.07,1.11,5.15,-0.67
0.092,0.16,0.25,1.04,-0.72,3.95,0.31
0.099,0.16,0.23,1.01,-1.63,1.6,2.17
0.104,0.15,0.22,0.95,-0.23,5.3,2.87
0.108,0.12,0.22,0.95,0.05,11.85,0.84
0.111,0.09,0.23,0.96,1.54,10.78,1.45
0.115,0.05,0.24,0.99,-1.19,1.24,2.21
0.118,0.07,0.24,0.96,1.62,-7.16,0.12
0.122,0.12,0.25,0.99,-2.27,1.3,-3.76
0.125,0.12,0.21,0.92,0.93,-1.76,-2.21
0.128,0.14,0.25,1.0,2.41,1.98,-1.19
0.131,0.11,0.24,1.02,1.45,-2.06,1.34
0.134,0.12,0.26,1.05,0.11,-3.15,2.38
0.138,0.07,0.26,1.03,-0.92,-7.45,-0.02
0.141,0.1,0.26,1.01,-3.31,-4.35,-3.05
0.144,0.11,0.25,1.0,-3.22,-2.32,-3.59
0.147,0.1,0.26,1.01,-3.34,-0.69,-3.86
0.151,0.14,0.28,1.04,-8.87,1.82,-3.66
0.154,0.13,0.27,1.04,-9.59,6.84,-4.93
0.157,0.13,0.26,1.03,-9.85,5.63,-2.73
0.16,0.14,0.26,1.03,-10.38,2.12,0.53
0.164,0.08,0.23,0.98,-16.09,9.02,0.76
0.167,0.03,0.23,1.07,-17.27,11.02,-0.85
0.17,0.07,0.24,1.04,-12.66,14.14,-7.68
0.174,0.04,0.2,1.01,-8.17,14.85,-9.89
0.177,0.04,0.18,0.96,-6.37,10.11,-13.47
0.18,-0.0,0.19,0.98,3.15,-2.06,-16.05
0.183,0.03,0.22,1.0,0.17,8.99,-26.12
0.186,0.05,0.22,1.01,-6.12,26.64,-32.98
0.19,0.09,0.24,1.03,-11.04,13.02,-21.21
0.193,0.07,0.22,1.03,-5.44,12.7,-26.82
0.196,0.07,0.24,1.03,-10.76,-4.98,-15.85
0.2,-0.0,0.22,1.08,-0.23,-2.63,-26.27
0.203,0.02,0.3,1.17,-14.34,16.56,-30.08
0.206,-0.06,0.28,1.13,-19.8,11.19,-33.51
0.21,0.04,0.27,1.11,-24.37,-1.22,-28.98
0.213,0.05,0.21,1.04,-32.03,-4.98,-21.83
0.217,0.06,0.17,0.97,-24.47,-5.19,-22.52
0.22,0.08,0.18,1.0,-26.56,0.6,-17.07
0.223,0.08,0.18,1.0,-29.94,2.98,-10.35
0.226,0.06,0.16,0.99,-31.44,0.81,-5.45
0.229,0.01,0.16,0.99,-29.86,-13.54,-7.37
0.232,-0.03,0.12,0.92,-12.49,-9.59,-17.24
0.236,-0.03,0.16,0.98,-11.68,7.13,-24.14
0.239,-0.08,0.18,1.0,-10.56,11.95,-28.5
0.242,-0.1,0.18,1.06,-16.27,5.86,-28.17
0.245,-0.19,0.18,1.11,-20.72,-21.98,-31.73
0.249,-0.14,0.14,1.06,-28.27,-31.04,-40.84
0.252,-0.04,0.1,1.0,-28.66,-41.71,-47.11
0.255,0.13,0.05,0.98,-27.83,-28.7,-45.85
0.258,0.1,-0.01,0.88,-13.31,2.6,-44.44
0.262,0.17,0.07,0.95,-3.68,1.13,-38.0
0.265,0.06,0.1,1.06,-10.9,-20.34,-22.9
0.268,0.03,0.06,1.08,-11.56,-9.92,-32.21
0.271,0.02,0.19,1.33,-21.77,2.4,-59.18
0.275,-0.01,0.17,1.23,-49.65,32.82,-73.4
0.278,0.02,0.12,0.97,-44.44,-11.92,-57.02
0.281,0.02,0.1,0.95,-33.07,7.77,-67.54
0.285,0.06,0.08,0.97,-29.57,5.59,-67.08
0.288,0.09,0.11,1.04,-35.05,28.89,-75.57
0.291,0.02,0.04,0.99,-28.05,-0.82,-76.72
0.294,0.07,-0.02,0.88,-20.95,-8.31,-78.84
0.301,0.26,-0.06,0.83,-16.44,20.14,-81.48
0.305,0.42,-0.07,0.85,-14.76,31.28,-63.77
0.308,0.48,-0.07,0.95,-12.09,11.21,-27.15
0.311,0.49,-0.08,0.97,-8.56,37.92,-1.77
0.315,0.43,-0.13,0.92,-5.31,2.56,16.03
0.318,0.43,-0.23,0.73,1.34,47.36,7.65
0.321,0.44,-0.18,0.77,17.62,83.95,4.9
0.324,0.36,-0.11,0.88,17.56,84.99,22.79
0.327,0.27,-0.06,0.93,19.77,70.41,40.99
0.331,0.2,0.05,1.08,16.5,61.3,48.44
0.334,0.03,0.08,1.14,-0.95,57.16,45.68
0.337,-0.08,-0.0,0.99,-7.54,29.63,46.95
0.34,-0.06,-0.04,0.95,8.24,1.65,40.47
0.343,0.04,0.05,1.15,8.43,10.67,33.63
0.347,0.02,0.06,1.19,-2.29,31.47,26.23
0.35,-0.1,0.09,1.25,-16.75,11.74,32.24
0.353,-0.13,0.01,1.1,-31.66,-11.37,42.7
0.356,-0.22,-0.08,1.01,-17.28,-42.06,38.72
0.359,-0.01,-0.17,0.87,-0.9,4.49,18.81
0.363,-0.09,-0.13,1.12,5.94,27.1,12.24
0.366,-0.18,-0.16,1.13,18.53,34.31,8.35
0.369,-0.21,-0.06,1.25,20.82,28.75,4.82
0.372,-0.17,-0.04,1.11,1.3,55.95,-4.49
0.375,-0.26,-0.15,0.94,7.65,69.08,-19.24
0.379,-0.2,-0.21,0.88,16.75,77.22,-27.51
0.382,0.02,-0.18,0.81,35.68,57.07,2.92
0.387,0.0,-0.1,0.79,49.4,70.98,33.36
0.39,-0.26,-0.07,0.78,51.19,91.19,43.27
0.393,-0.5,0.04,1.05,41.19,83.08,20.98
0.396,-0.45,0.07,0.85,13.16,118.2,-5.94
0.4,-0.45,0.15,0.76,23.04,116.58,-17.53
0.403,-0.46,0.2,0.6,18.47,107.42,-8.64
0.406,-0.5,0.17,0.65,14.81,72.72,15.71
0.409,-0.43,0.18,0.5,6.37,69.76,35.94
0.412,-0.69,0.33,0.56,-6.41,17.98,64.4
0.415,-0.84,0.25,0.3,12.98,4.03,71.86
0.419,-0.72,0.39,0.33,49.83,-15.27,55.95
0.422,-0.57,0.61,0.7,50.05,22.69,15.71
0.425,-0.42,0.65,0.8,18.92,82.93,1.48
0.428,-0.87,0.76,1.19,-66.84,2.93,50.52
0.431,-1.09,0.5,1.26,-40.95,-92.61,46.67
0.435,-0.39,0.44,1.2,-24.84,-108.89,17.34
0.438,0.1,0.39,1.05,-30.95,-60.03,3.45
0.441,0.22,0.39,0.94,-42.9,17.11,30.79
0.444,-0.4,0.19,0.66,-36.15,37.88,45.83
0.447,-0.63,0.18,0.69,-19.71,-19.89,40.0
0.451,-0.63,0.14,0.72,-22.47,-19.45,13.71
0.454,-0.51,0.13,0.73,-21.8,-27.74,5.04
0.457,-0.36,0.12,0.72,-16.79,-25.22,13.22
0.46,-0.47,0.09,0.74,-1.15,-13.11,14.95
0.464,-0.49,0.12,0.82,6.56,-4.55,10.66
0.467,-0.54,0.17,0.92,7.68,-3.42,-0.21
0.47,-0.56,0.21,1.0,-3.82,4.23,-10.12
0.473,-0.53,0.2,1.0,-4.93,-5.28,-11.05
0.476,-0.47,0.19,0.94,-4.34,-11.89,-8.61
0.479,-0.44,0.16,0.89,2.98,-18.06,-9.08
0.483,-0.35,0.17,0.88,8.0,-3.71,-14.44
0.486,-0.3,0.17,0.86,7.3,26.21,-17.95
0.489,-0.3,0.17,0.89,12.23,31.71,-15.74
0.492,-0.39,0.21,0.93,13.19,20.63,-5.85
0.495,-0.48,0.22,0.94,20.05,5.28,-12.14
0.499,-0.48,0.25,0.95,14.92,0.58,-15.48
0.502,-0.42,0.22,0.88,10.29,-1.57,-15.19
0.505,-0.35,0.2,0.85,13.37,-8.15,-14.26
0.508,-0.34,0.19,0.91,17.19,-9.1,-13.92
0.512,-0.25,0.23,0.94,12.46,4.0,-15.36
0.515,-0.36,0.22,0.89,8.75,11.48,-10.96
0.518,-0.46,0.2,0.9,9.83,0.87,-12.18
0.522,-0.5,0.21,0.88,7.92,-2.96,-18.9
0.525,-0.42,0.21,0.86,6.4,-4.69,-22.31
0.528,-0.34,0.22,0.89,3.74,-7.88,-16.14
0.531,-0.3,0.23,0.91,-0.55,-12.14,-5.13
0.534,-0.32,0.21,0.87,-0.55,-1.45,2.76
0.538,-0.42,0.15,0.82,5.19,0.99,-1.89
0.541,-0.48,0.21,0.87,0.44,-0.55,-5.16
0.544,-0.48,0.22,0.87,1.3,-10.49,-8.63
0.547,-0.43,0.2,0.87,1.74,-19.76,-8.34
0.55,-0.37,0.2,0.88,3.1,-19.89,-6.79
0.553,-0.35,0.24,0.94,-0.87,-17.86,-6.05
0.557,-0.35,0.25,0.95,-11.88,-17.66,-2.46
0.56,-0.42,0.2,0.85,-7.44,-16.44,-1.5
0.564,-0.41,0.19,0.84,0.2,-23.45,-4.84
0.567,-0.34,0.2,0.87,1.04,-19.89,-5.5
0.57,-0.3,0.21,0.91,-0.26,-21.88,-0.29
0.574,-0.33,0.21,0.91,-2.03,-20.26,0.73
0.577,-0.29,0.22,0.9,0.17,-20.31,3.02
0.58,-0.33,0.22,0.92,6.53,-9.8,-1.73
0.584,-0.31,0.23,0.95,1.89,-3.79,-2.76
0.587,-0.34,0.21,0.91,2.49,-4.73,-3.44
0.59,-0.3,0.23,0.94,4.12,-5.82,-3.39
0.593,-0.29,0.22,0.93,8.29,1.18,-2.75
0.596,-0.28,0.23,0.95,7.25,8.66,-2.37
0.6,-0.29,0.24,0.92,5.16,11.25,-2.17
0.603,-0.32,0.22,0.94,5.77,6.9,-1.74
0.606,-0.35,0.22,0.94,5.92,7.89,-1.19
0.61,-0.34,0.23,0.9,3.07,8.76,-2.0
0.613,-0.34,0.24,0.92,6.58,4.99,-2.69
0.616,-0.3,0.25,0.97,3.22,6.38,-1.73
0.619,-0.32,0.26,0.99,-0.03,8.23,0.9
0.622,-0.35,0.26,0.97,-2.17,6.78,2.69
0.625,-0.36,0.28,0.97,-2.95,-1.86,1.74
0.628,-0.38,0.31,1.01,-4.15,-2.46,-0.7
0.632,-0.31,0.31,1.12,-12.79,-3.22,-2.34
0.635,-0.28,0.28,1.06,-22.72,-6.0,0.46
0.638,-0.24,0.26,0.98,-23.22,-11.86,5.79
0.641,-0.14,0.26,0.92,-19.91,-13.82,11.85
0.645,-0.14,0.29,0.93,-18.72,8.27,13.39
0.648,-0.2,0.29,0.98,-18.72,27.97,10.96
0.651,-0.25,0.28,1.02,-17.77,27.68,10.53
0.654,-0.26,0.37,1.11,-29.36,12.79,14.67
0.658,-0.2,0.38,1.07,-44.92,6.79,23.33
0.661,-0.22,0.34,1.01,-51.77,6.26,33.4
0.664,-0.29,0.32,0.99,-56.44,7.34,38.02
0.667,-0.34,0.32,0.97,-56.0,4.98,38.98
0.67,-0.35,0.3,1.01,-61.56,5.77,37.8
0.673,-0.31,0.25,0.99,-64.43,4.11,36.02
0.676,-0.27,0.23,0.95,-62.85,10.61,37.92
0.679,-0.26,0.18,0.98,-63.27,13.08,43.31
0.683,-0.33,0.12,0.93,-64.79,16.08,45.71
0.686,-0.38,0.12,0.88,-63.73,14.0,44.61
0.689,-0.31,0.12,0.86,-52.32,6.0,45.66
0.692,-0.0,0.14,0.61,-76.85,16.95,50.53
0.695,-0.33,0.05,0.96,-66.61,-9.39,52.34
0.698,-0.26,0.02,0.82,-39.48,12.08,50.11
0.701,-0.21,0.06,0.81,-36.6,33.57,51.24
0.705,-0.4,0.07,0.85,-31.16,72.79,46.92
0.708,-0.62,0.05,0.83,-22.95,108.27,33.37
0.722,-0.6,0.09,0.86,-30.49,61.31,29.88
0.741,-0.5,0.11,0.99,-42.31,11.95,30.92
0.76,-0.25,0.06,0.86,-34.37,28.05,35.13
0.782,-0.33,0.07,0.88,-43.16,37.34,36.9
0.801,-0.49,0.04,0.81,-43.25,37.86,36.08
0.819,-0.51,0.06,0.72,-39.45,29.88,35.22
0.842,-0.6,0.04,0.8,-37.21,13.13,34.32
0.861,-0.57,0.05,0.85,-46.0,-0.44,31.57
0.88,-0.54,-0.02,0.81,-49.71,2.27,34.32
0.902,-0.54,-0.02,0.77,-53.18,8.5,32.98
0.921,-0.58,-0.01,0.78,-47.24,19.13,27.21
0.94,-0.59,-0.01,0.74,-37.07,32.06,23.68
0.962,-0.63,-0.04,0.68,-26.4,22.73,26.17
0.98,-0.58,-0.01,0.86,-27.4,16.34,29.83
1.0,-0.52,0.0,0.9,-33.05,-6.52,26.05
1.022,-0.52,0.01,0.83,-35.1,-16.15,31.18
1.04,-0.48,0.02,0.78,-43.82,4.44,38.55
1.063,-0.62,-0.0,0.89,-46.24,-49.76,40.46
1.081,-0.47,-0.02,0.83,-52.92,-4.6,35.94
1.1,-0.65,-0.05,0.91,-49.22,2.49,27.73
1.123,-0.55,-0.05,0.81,-39.01,22.96,23.13
1.141,-0.38,-0.06,0.77,-36.4,4.76,38.76
1.16,-0.49,-0.06,0.8,-38.55,-13.02,48.29
1.182,-0.59,-0.06,0.83,-43.07,-22.05,47.45
1.201,-0.48,-0.08,0.81,-48.23,-19.44,39.62
1.22,-0.44,-0.03,0.85,-50.79,-13.39,40.14
1.242,-0.4,-0.04,0.82,-46.73,-11.47,47.6
1.26,-0.45,-0.03,0.81,-38.35,-15.85,55.68
1.283,-0.57,-0.02,0.83,-27.37,-23.45,53.65
1.301,-0.6,-0.01,0.88,-22.63,-26.41,41.28
1.319,-0.49,0.03,0.91,-29.66,-34.73,37.69
1.342,-0.38,0.01,0.87,-36.49,-36.37,45.65
1.361,-0.32,0.01,0.87,-42.47,-17.8,55.04
1.38,-0.42,-0.01,0.8,-37.47,-1.37,56.56
1.402,-0.5,0.06,0.91,-18.34,-1.57,51.11
1.42,-0.54,-0.03,0.85,-9.94,-24.15,49.16
1.44,-0.51,-0.0,0.87,-26.14,-44.21,51.83
1.462,-0.39,0.01,0.85,-39.3,-42.67,54.99
1.48,-0.39,-0.02,0.89,-57.42,-34.64,63.34
1.503,-0.31,-0.02,0.79,-60.17,-17.36,69.25
1.521,-0.4,-0.0,0.84,-44.66,-18.34,78.92
1.54,-0.41,0.01,0.89,-42.15,-16.56,78.46
1.562,-0.42,0.01,0.9,-45.48,-3.34,75.74
1.581,-0.38,0.03,0.81,-62.6,34.87,78.69
1.6,-0.36,-0.0,0.83,-60.58,80.4,83.92
1.622,-0.5,0.02,0.83,-59.42,83.05,90.32
1.641,-0.57,0.03,0.94,-46.82,57.79,84.15
1.661,-0.53,0.06,0.93,-51.65,46.43,85.47
1.682,-0.57,0.02,0.86,-55.76,68.27,81.19
1.701,-0.7,-0.06,0.75,-60.87,78.08,67.01
1.72,-0.84,0.01,0.88,-62.99,47.3,57.85
1.742,-0.8,-0.04,0.81,-64.81,13.85,52.31
1.76,-0.77,-0.05,0.79,-72.64,3.44,52.6
1.779,-0.76,-0.13,0.65,-75.74,9.54,44.69
1.802,-0.71,-0.1,0.67,-80.05,-2.72,42.87
1.82,-0.6,-0.13,0.6,-72.84,-10.26,49.76
1.843,-0.58,-0.15,0.56,-61.86,-24.17,62.67
1.861,-0.63,-0.16,0.63,-36.98,-47.97,68.02
1.88,-0.64,-0.1,0.68,-16.56,-59.51,71.47
1.902,-0.62,-0.05,0.77,-19.25,-41.48,62.02
1.92,0.09,-0.35,0.24,-71.77,81.66,44.75
1.94,-0.8,-0.09,0.82,-57.22,141.66,43.34
1.962,-0.7,-0.08,0.73,-57.91,38.66,49.01
1.98,-0.69,-0.14,0.58,-38.11,18.67,53.42
1.999,-0.76,-0.1,0.69,-40.0,-6.14,54.43
2.021,-0.73,-0.07,0.71,-52.03,-6.32,50.98
2.04,-0.78,-0.05,0.71,-64.05,-6.75,43.74
2.063,-0.65,-0.16,0.56,-51.95,-4.5,38.23
2.081,-0.64,-0.11,0.64,-45.77,26.09,28.63
2.1,-0.61,-0.14,0.59,-51.25,23.6,29.57
2.126,-0.55,-0.17,0.51,-47.82,11.65,39.92
2.141,-0.48,-0.19,0.58,-32.38,15.47,53.16
2.16,-0.52,-0.14,0.57,-31.11,28.81,61.8
2.182,-0.72,-0.14,0.57,-29.22,35.16,58.72
2.201,-1.01,-0.08,0.68,-25.63,29.54,41.85
2.22,-1.05,-0.08,0.65,-22.89,22.4,27.94
2.242,-1.03,-0.07,0.6,-23.63,3.56,21.6
2.26,-1.08,-0.11,0.56,-18.76,7.6,5.92
2.279,-1.07,-0.13,0.48,-14.66,6.98,-5.21
2.302,-0.9,-0.12,0.53,-10.31,-15.24,-1.76
2.32,-0.67,-0.16,0.43,-11.53,-14.85,6.31
2.343,-0.71,-0.19,0.46,-2.7,-9.5,6.35
2.361,-0.68,-0.13,0.56,5.24,-8.21,4.5
2.38,-0.62,-0.07,0.75,9.37,1.68,1.27
2.399,-0.72,-0.03,0.83,4.37,3.92,1.22
2.421,-0.78,-0.02,0.78,-5.76,4.24,0.23
2.44,-0.82,-0.07,0.72,-9.51,1.77,-0.18
2.46,-0.83,-0.11,0.64,-7.07,4.79,-5.88
2.482,-0.79,-0.09,0.64,0.43,6.76,-13.79
2.501,-0.74,-0.1,0.64,-0.73,1.79,-11.92
2.52,-0.74,-0.13,0.58,-2.69,2.49,-9.11
2.542,-0.8,-0.11,0.58,-1.19,2.56,-8.55
2.561,-0.84,-0.11,0.57,-0.64,1.27,-13.04
2.579,-0.88,-0.12,0.58,3.05,7.97,-25.37
2.602,-0.88,-0.13,0.59,5.44,5.91,-34.78
2.621,-0.82,-0.14,0.6,7.48,-6.23,-38.81
2.64,-0.7,-0.14,0.59,12.31,-16.53,-35.27
2.662,-0.57,-0.13,0.68,7.42,-25.98,-24.14
2.68,-0.58,-0.16,0.67,7.54,-23.8,-16.95
2.703,-0.58,-0.15,0.69,8.92,-12.81,-15.69
2.721,-0.6,-0.13,0.74,9.07,-13.04,-12.08
2.74,-0.58,-0.14,0.76,5.27,-14.43,-5.37
2.762,-0.58,-0.14,0.74,-0.95,-7.86,-3.05
2.781,-0.59,-0.15,0.7,-2.43,4.17,-0.31
2.8,-0.66,-0.16,0.66,-0.17,2.38,2.14
2.823,-0.67,-0.12,0.66,1.39,-0.78,2.41
2.841,-0.69,-0.11,0.69,0.89,0.73,2.82
2.86,-0.7,-0.12,0.69,-1.5,1.54,2.76
2.88,-0.72,-0.13,0.68,-1.91,2.99,1.79
2.902,-0.73,-0.13,0.66,-0.79,5.83,-1.19
2.921,-0.74,-0.13,0.67,1.07,6.32,-4.09
2.94,-0.71,-0.13,0.69,1.28,-0.17,-2.37
2.962,-0.71,-0.12,0.71,-1.19,-4.18,-2.2
2.98,-0.68,-0.13,0.7,-5.6,-5.15,-0.93
2.999,-0.69,-0.17,0.65,-3.89,1.54,-3.07
3.022,-0.69,-0.17,0.67,-0.79,-0.09,-3.83
3.04,-0.68,-0.15,0.66,-0.15,-0.32,-1.62
3.06,-0.71,-0.16,0.66,0.58,-0.58,-1.95
3.082,-0.72,-0.15,0.67,0.35,1.47,-4.29
3.1,-0.69,-0.13,0.68,1.4,-1.54,-1.74
3.12,-0.69,-0.13,0.67,0.79,0.69,-2.32
3.142,-0.73,-0.14,0.65,1.18,4.93,-2.63
3.161,-0.75,-0.16,0.66,5.66,9.54,-6.12
3.18,-0.71,-0.14,0.66,1.16,-2.08,-1.31
3.202,-0.69,-0.12,0.66,-0.56,-8.49,4.81
3.221,-0.7,-0.14,0.63,4.32,-2.35,0.73
3.24,-0.72,-0.1,0.63,4.5,-1.97,-3.68
3.262,-0.71,-0.15,0.64,4.4,5.79,-6.31
3.281,-0.75,-0.15,0.62,8.0,8.11,-10.43
3.3,-0.73,-0.11,0.7,7.21,2.08,-13.01
3.322,-0.66,-0.11,0.71,-0.53,-10.93,-6.05
3.341,-0.67,-0.16,0.66,-0.18,-3.83,-4.17
3.36,-0.71,-0.12,0.7,0.03,-12.92,-0.43
3.382,-0.71,-0.13,0.69,0.41,-11.07,-3.83
3.401,-0.67,-0.11,0.69,-0.5,-4.24,-6.66
3.419,-0.66,-0.15,0.72,1.07,-5.15,-4.72
3.442,-0.67,-0.13,0.72,1.28,-6.89,-3.48
3.461,-0.67,-0.1,0.73,2.37,-3.1,-3.97
3.48,-0.65,-0.09,0.75,-3.27,-6.92,-0.46
3.502,-0.65,-0.1,0.69,-6.84,0.85,-0.96
3.521,-0.71,-0.15,0.64,-4.46,3.77,-2.93
3.54,-0.74,-0.15,0.66,-1.59,-1.37,-4.53
3.562,-0.71,-0.15,0.67,0.61,1.44,-7.47
3.58,-0.73,-0.13,0.69,2.0,-0.63,-9.95
3.599,-0.68,-0.14,0.69,-1.13,-8.2,-4.2
3.622,-0.69,-0.12,0.73,-1.66,-11.74,-1.18
3.64,-0.69,-0.11,0.71,-3.18,-8.95,-3.77
3.659,-0.66,-0.13,0.67,-4.21,-2.6,-5.91
3.682,-0.69,-0.17,0.65,-1.28,-1.4,-6.31
3.701,-0.69,-0.17,0.66,2.32,-8.26,-5.11
3.72,-0.66,-0.14,0.71,1.45,-7.6,-4.29
3.742,-0.62,-0.12,0.71,-2.69,-7.74,-3.68
3.761,-0.62,-0.14,0.68,-2.76,4.99,-2.93
3.78,-0.68,-0.15,0.68,-2.0,3.5,-2.15
3.802,-0.66,-0.13,0.7,-3.39,-1.94,1.76
3.821,-0.7,-0.14,0.69,-1.83,1.56,1.66
3.84,-0.74,-0.14,0.72,0.44,-5.11,-2.21
3.862,-0.7,-0.11,0.77,0.34,-3.51,-4.89
3.881,-0.67,-0.12,0.76,-1.56,-8.12,-3.79
3.9,-0.64,-0.13,0.73,-3.48,-5.33,-2.24
3.922,-0.63,-0.14,0.71,-3.68,-4.24,-0.37
3.94,-0.64,-0.14,0.66,-3.42,-5.4,2.64
3.96,-0.65,-0.15,0.69,-2.64,-3.31,2.75
3.982,-0.69,-0.15,0.71,-2.34,-2.73,0.44
