timestamp,acce_x,acce_y,acce_z,gyro_x,gyro_y,gyro_z
0.001,0.1,-0.97,-0.14,0.66,0.92,4.29
0.002,0.14,-0.97,-0.16,1.24,1.59,5.88
0.004,0.14,-0.98,-0.15,-1.4,2.89,3.24
0.005,0.12,-1.0,-0.13,0.52,0.73,2.41
0.007,0.13,-0.99,-0.15,1.63,3.69,4.0
0.008,0.13,-0.99,-0.15,0.37,3.37,2.63
0.009,0.12,-1.0,-0.13,2.52,2.5,2.09
0.011,0.12,-1.01,-0.14,3.22,4.29,2.02
0.012,0.11,-0.99,-0.15,2.37,0.34,2.75
0.013,0.12,-0.99,-0.15,0.7,3.16,1.37
0.014,0.11,-1.0,-0.14,2.06,1.4,1.3
0.015,0.12,-0.99,-0.14,4.09,3.54,1.36
0.016,0.12,-0.97,-0.15,2.05,4.32,0.24
0.018,0.11,-0.98,-0.13,2.31,1.88,0.15
0.019,0.11,-0.98,-0.13,4.12,0.43,1.05
0.02,0.11,-0.98,-0.15,3.8,-0.9,1.73
0.021,0.11,-0.97,-0.15,1.22,-4.76,2.24
0.022,0.1,-0.99,-0.13,3.18,-6.4,3.05
0.023,0.14,-1.0,-0.15,3.68,-0.96,2.38
0.024,0.14,-0.98,-0.14,3.73,1.27,-0.64
0.025,0.12,-0.99,-0.12,4.63,-0.64,-2.06
0.026,0.1,-0.99,-0.14,5.91,1.37,-0.63
0.027,0.11,-0.97,-0.15,4.55,-0.55,2.08
0.028,0.13,-0.97,-0.16,1.5,-0.98,1.33
0.029,0.13,-0.99,-0.13,1.89,-0.44,-0.2
0.03,0.11,-1.0,-0.13,4.66,2.67,-0.17
0.031,0.11,-0.99,-0.15,4.55,2.72,0.79
0.032,0.1,-1.0,-0.13,5.13,1.42,2.31
0.033,0.11,-1.02,-0.11,9.36,-0.82,3.97
0.034,0.12,-1.03,-0.11,14.72,-1.71,3.89
0.035,0.1,-1.01,-0.03,28.0,-6.5,3.59
0.036,0.1,-1.05,-0.04,39.47,-6.87,4.21
0.037,0.09,-1.07,0.0,57.47,-11.01,7.21
0.038,0.12,-1.06,-0.0,73.4,-3.59,7.59
0.039,0.13,-1.06,0.01,87.94,-1.07,3.59
0.04,0.12,-1.07,0.03,96.85,-6.05,-2.47
0.041,0.03,-1.16,0.21,113.02,-18.46,-6.4
0.042,0.02,-1.18,0.26,145.97,-21.8,6.67
0.043,-0.0,-1.17,0.27,171.51,-15.27,24.15
0.043,0.01,-1.15,0.28,179.66,-18.96,43.19
0.044,0.06,-1.08,0.18,173.45,-12.44,54.05
0.045,0.04,-1.08,0.24,172.41,-16.72,54.7
0.046,0.08,-1.07,0.33,181.66,-10.99,55.77
0.047,0.1,-1.05,0.4,186.27,0.47,50.18
0.048,0.06,-1.03,0.45,195.88,-18.89,42.31
0.048,0.1,-0.94,0.45,193.8,-10.61,34.5
0.049,0.1,-0.91,0.52,187.21,3.92,26.32
0.05,0.06,-0.85,0.52,175.5,17.24,14.92
0.051,0.04,-0.78,0.62,167.22,18.15,13.08
0.052,-0.01,-0.74,0.66,163.24,2.7,6.38
0.052,-0.06,-0.71,0.78,163.77,-24.76,3.92
0.053,-0.0,-0.67,0.76,172.32,-26.29,5.47
0.054,-0.05,-0.62,0.8,168.93,-19.95,6.09
0.055,-0.1,-0.54,0.83,156.32,-30.79,9.95
0.056,-0.01,-0.48,0.81,158.67,-24.37,10.82
0.056,0.05,-0.45,0.83,142.46,-15.3,5.04
0.057,-0.02,-0.4,0.87,135.91,-19.4,3.22
0.058,-0.01,-0.34,0.85,129.5,-15.8,7.37
0.059,0.02,-0.27,0.88,121.16,-7.65,9.69
0.06,0.01,-0.25,0.93,113.59,-17.85,10.66
0.061,0.0,-0.24,0.98,114.61,-22.5,11.42
0.061,0.06,-0.17,0.91,115.47,-4.29,12.76
0.062,0.06,-0.08,0.86,105.28,8.21,8.92
0.063,0.02,-0.03,0.93,89.77,-6.72,9.18
0.064,0.06,-0.02,0.91,79.28,-13.56,7.01
0.064,-0.01,-0.02,0.91,71.92,-16.06,9.18
0.065,0.04,0.0,0.89,62.49,-4.73,14.41
0.066,0.07,0.06,0.89,50.72,1.34,15.98
0.067,0.1,0.09,0.89,34.08,9.31,10.15
0.067,-0.02,-0.04,1.03,26.05,-8.69,8.41
0.068,0.05,-0.05,1.11,45.57,-17.1,18.63
0.069,0.16,0.07,0.99,45.65,12.02,13.69
0.07,0.1,0.09,0.97,54.27,10.96,6.02
0.071,0.1,0.15,0.96,40.58,-6.52,4.14
0.071,0.12,0.15,0.93,26.6,-2.23,-0.49
0.072,0.08,0.09,1.0,22.43,3.56,1.73
0.073,0.1,0.09,0.99,22.75,11.73,4.32
0.074,0.08,0.14,0.96,18.5,10.32,1.56
0.074,0.06,0.15,0.93,11.01,2.95,-2.06
0.075,-0.05,0.06,1.02,5.04,-7.88,4.14
0.076,0.03,0.05,1.01,14.2,0.02,13.48
0.077,0.09,0.12,1.0,16.9,10.44,10.78
0.077,0.07,0.18,0.94,9.68,6.92,2.18
0.078,0.03,0.2,0.98,-0.75,-5.66,-0.49
0.079,0.02,0.12,1.02,-3.31,-6.69,1.22
0.08,0.04,0.13,1.01,-2.87,-7.65,1.16
0.08,0.03,0.12,1.03,-9.63,-4.72,1.83
0.094,0.05,0.09,1.03,-5.88,-5.68,2.27
0.113,0.04,0.08,1.07,-6.06,-7.77,3.6
0.136,0.06,0.07,1.03,-1.82,-4.24,2.63
0.155,0.07,0.09,1.02,-1.25,-2.9,1.53
0.173,0.07,0.09,1.0,-2.46,-2.35,0.76
0.197,0.08,0.09,1.0,-6.0,-4.6,0.24
0.215,0.08,0.08,1.0,-8.15,-1.71,-0.63
0.234,0.07,0.05,1.05,-2.61,-10.29,0.34
0.258,0.09,0.08,1.0,0.6,-2.89,0.82
0.274,0.08,0.07,1.01,-4.64,1.1,1.31
0.294,0.09,0.08,0.99,-2.26,-2.87,-0.17
0.317,0.1,0.11,0.98,-6.18,1.47,-0.14
0.336,0.09,0.09,0.99,-9.83,3.51,-2.27
0.354,0.09,0.08,0.99,-8.95,-4.17,-4.32
0.373,0.07,0.04,1.04,-7.77,0.24,-4.06
0.396,0.06,0.01,1.07,0.06,-7.83,-2.21
0.415,0.08,0.06,1.01,5.79,3.11,-1.34
0.434,0.06,0.05,1.05,-0.29,3.04,-1.4
0.458,0.07,0.06,1.03,3.56,-7.01,-1.95
0.476,0.07,0.09,1.01,-1.59,2.81,-1.79
0.494,0.05,0.06,1.06,-1.65,0.67,-1.83
0.513,0.07,0.06,1.02,3.8,-5.86,-2.96
0.537,0.08,0.1,1.0,-0.6,2.58,-2.29
0.555,0.06,0.08,1.02,-2.17,0.08,-3.88
0.573,0.08,0.08,1.0,1.39,-7.74,-4.31
0.597,0.08,0.1,0.99,-2.78,0.85,-4.21
0.616,-0.02,0.09,1.1,0.09,-11.36,-1.21
0.634,0.05,0.06,1.02,3.59,-13.71,-1.37
0.657,0.09,0.05,1.01,0.29,-2.87,-0.66
0.676,0.08,0.05,1.04,1.8,0.38,-0.11
0.694,0.07,0.07,1.01,0.67,-0.37,-0.24
0.718,0.06,0.09,1.02,-0.46,-2.24,0.44
0.736,0.08,0.08,1.02,-1.59,-0.75,0.76
0.754,0.07,0.07,1.02,-0.43,-3.45,1.76
0.773,0.08,0.06,1.03,-0.34,-2.2,1.3
0.797,0.08,0.06,1.02,1.21,-1.45,1.66
0.814,0.07,0.06,1.01,-0.64,0.15,2.17
0.834,0.08,0.06,1.02,-1.4,0.99,1.8
0.854,0.08,0.06,1.01,-1.19,0.52,2.0
0.874,0.08,0.06,1.03,0.76,-1.5,2.38
0.894,0.09,0.05,1.01,2.35,-2.03,1.57
0.914,0.09,0.06,1.02,0.73,-2.66,1.94
0.934,0.1,0.05,1.02,2.08,-0.81,1.97
0.954,0.09,0.05,1.02,1.73,-0.32,1.79
0.974,0.09,0.05,1.01,2.84,-3.95,2.08
0.994,0.1,0.04,1.02,2.02,-0.73,1.73
1.014,0.1,0.04,1.01,2.43,-1.57,1.39
1.034,0.11,0.04,1.02,2.75,-1.01,1.82
1.054,0.09,0.06,1.0,3.01,-0.53,2.17
1.074,0.12,0.07,1.0,-0.21,-1.88,1.54
1.097,0.11,0.05,1.02,-0.06,-1.21,1.39
1.116,0.11,0.05,1.02,0.05,0.15,1.07
1.135,0.1,0.05,1.01,1.92,2.18,0.09
1.153,0.1,0.06,1.0,0.17,-0.02,-0.09
1.177,0.11,0.05,1.03,0.46,1.76,-0.76
1.194,0.1,0.06,1.02,1.94,1.16,-0.66
1.214,0.09,0.06,1.02,-0.26,2.02,-0.76
1.237,0.08,0.06,1.02,-0.15,-0.43,-0.55
1.256,0.08,0.05,1.02,-2.18,-2.17,-0.26
1.274,0.08,0.05,1.02,-2.05,-2.64,-0.41
1.293,0.09,0.06,1.01,-3.08,-2.5,0.18
1.316,0.1,0.04,1.03,-3.27,-4.12,-0.96
1.335,0.1,0.04,1.04,-1.22,-3.31,-1.53
1.353,0.11,0.04,1.02,-2.29,-0.2,-1.82
1.377,0.11,0.04,1.04,-0.4,-2.67,-2.0
1.395,0.12,0.04,1.02,-0.82,-1.48,-2.47
1.413,0.12,0.06,0.98,-2.9,3.22,-2.52
1.437,0.1,0.06,0.99,-6.9,3.6,-2.23
1.455,0.1,0.04,0.98,-6.52,-0.44,-3.86
1.474,0.1,0.04,0.98,-8.11,1.07,-4.0
1.497,0.08,0.02,1.05,-8.53,1.6,-2.69
1.516,0.11,0.03,0.99,-3.85,3.63,-2.47
1.534,0.12,0.06,0.96,-11.45,10.34,-4.7
1.553,0.09,0.04,1.0,-19.21,7.28,-4.73
1.576,0.09,0.04,1.0,-17.98,6.32,-4.89
1.595,0.08,0.02,1.02,-15.31,5.82,-4.24
1.613,0.1,0.03,1.01,-13.63,0.6,-4.63
1.637,0.09,0.01,1.02,-14.17,2.24,-6.08
1.655,0.09,0.02,0.99,-16.29,5.86,-5.59
1.673,0.08,0.02,0.97,-24.37,9.79,-6.43
1.697,0.06,0.0,1.0,-29.36,3.88,-7.39
1.715,0.07,-0.0,0.98,-27.28,0.44,-7.85
1.734,0.08,-0.02,0.98,-30.53,2.72,-7.85
1.757,0.09,-0.01,0.96,-39.4,6.7,-9.5
1.775,0.08,-0.01,0.93,-52.08,6.58,-11.18
1.794,0.07,-0.07,1.01,-60.75,4.46,-12.37
1.817,0.08,-0.11,0.99,-60.56,4.89,-13.88
1.835,0.08,-0.11,0.98,-64.87,5.15,-13.74
1.854,0.09,-0.09,0.9,-74.34,10.81,-16.03
1.877,0.06,-0.16,0.94,-87.39,8.78,-18.66
1.895,0.03,-0.25,0.99,-81.54,-1.28,-17.24
1.913,0.01,-0.28,0.99,-77.51,3.74,-13.25
1.937,0.0,-0.3,0.98,-70.85,3.11,-8.11
1.955,0.03,-0.32,0.94,-69.69,-2.76,-6.76
1.973,0.06,-0.32,0.9,-75.5,4.12,-8.26
1.997,0.03,-0.36,0.98,-82.82,0.05,-7.11
2.015,0.06,-0.42,0.99,-69.11,-5.05,-3.85
2.033,0.07,-0.42,0.95,-66.7,4.9,-5.15
2.057,0.05,-0.41,0.87,-71.83,6.6,-6.72
2.075,0.08,-0.44,0.9,-74.85,-7.91,-3.95
2.093,0.11,-0.47,0.89,-76.15,-4.31,-5.85
2.116,0.11,-0.44,0.8,-88.21,6.87,-8.2
2.135,0.1,-0.47,0.8,-97.76,6.72,-11.91
2.153,0.11,-0.54,0.84,-98.92,-3.36,-17.3
2.176,0.11,-0.6,0.85,-95.57,-4.58,-22.85
2.194,0.11,-0.61,0.77,-92.82,-2.32,-24.35
2.212,0.12,-0.63,0.74,-97.15,1.33,-23.76
2.236,0.06,-0.68,0.76,-98.56,0.31,-23.82
2.254,0.07,-0.73,0.76,-95.44,-3.3,-20.18
2.278,0.1,-0.75,0.75,-91.25,-0.32,-17.25
2.295,0.13,-0.77,0.69,-87.04,3.54,-16.02
2.314,0.13,-0.75,0.59,-90.0,11.01,-18.0
2.337,0.12,-0.75,0.55,-101.62,9.71,-20.64
2.355,0.11,-0.81,0.62,-98.82,0.08,-21.02
2.373,0.1,-0.82,0.56,-104.93,8.15,-23.82
2.397,0.11,-0.84,0.46,-111.71,6.14,-23.13
2.415,0.12,-0.87,0.54,-111.45,-1.25,-18.92
2.433,0.16,-0.91,0.49,-104.18,8.44,-15.97
2.456,0.17,-0.9,0.44,-108.64,13.08,-18.87
2.474,0.15,-0.93,0.43,-104.35,2.52,-23.13
2.492,0.16,-0.9,0.22,-112.14,3.5,-22.95
2.516,0.06,-0.94,0.45,-115.74,-22.73,-14.93
2.534,0.17,-1.02,0.3,-102.17,-19.6,-4.56
2.557,0.16,-0.98,0.26,-110.93,8.93,-4.66
2.575,0.23,-0.92,-0.05,-135.53,17.16,-6.12
2.594,0.22,-0.96,-0.01,-165.56,11.83,-16.99
2.617,0.11,-1.06,0.12,-159.73,-5.92,-13.18
2.635,0.09,-1.15,0.27,-147.95,0.46,-6.5
2.653,0.07,-1.21,0.29,-111.34,-7.37,3.11
2.676,0.15,-1.13,0.13,-97.07,-4.82,11.48
2.694,0.17,-1.05,-0.03,-107.18,4.29,6.87
2.713,0.14,-1.13,0.03,-85.15,-1.4,0.72
2.736,0.3,-0.88,-0.03,-63.05,-1.47,34.47
2.754,0.17,-1.07,-0.07,-61.19,4.31,21.86
2.772,0.13,-1.02,-0.1,-69.24,13.91,15.53
2.796,0.17,-1.05,-0.06,-49.65,-12.06,10.92
2.814,0.15,-1.07,-0.02,-29.51,-10.98,4.75
2.837,0.06,-1.15,0.1,11.3,-33.19,12.46
2.855,0.1,-1.11,0.02,78.03,-79.21,22.29
2.874,0.15,-0.95,-0.2,73.95,-99.19,28.31
2.897,0.26,-0.9,-0.3,7.85,13.45,4.82
2.915,0.07,-1.05,-0.08,14.18,-5.73,0.27
2.934,0.14,-0.95,-0.22,23.16,-13.31,2.58
2.957,0.09,-0.93,-0.19,-3.6,18.34,0.93
2.975,0.03,-1.01,-0.08,7.21,-9.11,7.95
2.994,0.08,-0.97,-0.08,12.31,-5.86,14.05
3.017,0.12,-0.96,-0.14,4.44,6.4,15.65
3.035,0.15,-0.92,-0.15,-3.44,10.49,11.98
3.054,0.18,-0.97,-0.13,-8.23,23.01,2.93
3.077,0.12,-0.96,-0.11,-11.79,17.33,-0.89
3.095,0.12,-0.97,-0.1,-1.18,6.98,-2.63
3.114,0.08,-0.99,-0.09,1.31,0.49,-0.47
3.137,0.1,-0.99,-0.12,0.84,1.71,2.93
3.156,0.11,-1.0,-0.11,-1.79,4.73,2.37
3.174,0.11,-1.0,-0.12,0.6,1.91,-0.34
3.198,0.11,-1.0,-0.15,0.75,1.27,-3.16
3.216,0.06,-1.01,-0.12,1.24,-0.89,-1.98
3.234,0.07,-1.03,-0.11,3.98,-0.26,0.4
3.253,0.1,-1.03,-0.11,6.56,-0.64,1.05
3.276,0.13,-0.99,-0.16,6.09,-1.11,-0.11
3.294,0.13,-1.0,-0.16,-0.37,6.44,-5.98
3.313,0.08,-1.02,-0.12,0.58,1.04,-5.59
3.336,0.07,-1.0,-0.13,3.68,0.85,-2.06
3.355,0.08,-0.99,-0.15,2.82,1.94,0.89
3.373,0.11,-0.99,-0.14,4.24,-1.53,1.51
3.397,0.12,-0.98,-0.15,2.84,1.21,0.34
3.415,0.1,-0.99,-0.12,4.31,-2.15,0.37
3.434,0.11,-0.97,-0.12,4.03,-0.29,1.66
3.457,0.11,-0.97,-0.11,1.33,-1.1,1.69
3.476,0.14,-0.96,-0.14,-0.12,1.42,0.9
3.494,0.11,-0.98,-0.1,-1.51,2.53,-0.6
3.517,0.12,-0.98,-0.13,1.63,3.54,1.36
3.536,0.12,-0.96,-0.14,-4.92,7.36,-0.2
3.554,0.13,-0.98,-0.16,-5.71,2.99,0.63
3.572,0.1,-0.98,-0.13,-2.0,5.07,0.37
3.596,0.1,-0.99,-0.15,-5.45,4.23,-0.31
3.614,0.08,-1.01,-0.13,-0.76,1.86,1.01
3.633,0.08,-1.0,-0.15,-0.41,4.09,2.69
3.656,0.09,-0.98,-0.15,-1.28,1.45,3.37
3.675,0.11,-0.96,-0.18,-12.87,6.82,1.94
3.693,0.12,-0.99,-0.15,-15.98,13.3,-0.37
3.716,0.11,-1.0,-0.09,-9.36,10.0,1.51
3.735,0.13,-1.02,-0.11,-1.77,9.3,0.43
3.753,0.13,-1.0,-0.11,7.94,-0.75,0.55
3.777,0.14,-0.98,-0.17,7.91,-1.21,-0.4
3.795,0.13,-0.98,-0.16,6.41,-2.73,-1.82
3.813,0.11,-0.99,-0.14,6.37,1.44,-3.37
3.837,0.08,-0.99,-0.13,4.79,4.24,-1.27
3.855,0.08,-0.97,-0.14,5.44,0.99,0.98
3.874,0.09,-0.98,-0.14,4.58,-0.66,0.93
3.897,0.1,-1.0,-0.13,5.66,-3.08,2.09
3.916,0.11,-0.99,-0.13,4.55,0.53,2.29
3.934,0.12,-0.99,-0.15,3.77,2.52,0.06
3.952,0.1,-0.99,-0.13,1.94,1.05,-0.52
3.976,0.12,-0.99,-0.13,1.76,0.32,0.89
