timestamp,acce_x,acce_y,acce_z,gyro_x,gyro_y,gyro_z
0.0,0.08,-0.1,0.96,-8.84,4.79,4.18
0.02,0.08,-0.14,0.98,-10.73,6.18,4.64
0.05,0.09,-0.12,0.96,-8.06,6.61,6.96
0.07,0.1,-0.11,0.96,-4.89,-5.5,5.73
0.09,0.07,-0.11,0.96,-6.46,4.55,6.63
0.12,0.08,-0.12,0.95,-3.18,7.42,5.13
0.14,0.1,-0.12,0.96,-5.1,1.62,5.37
0.16,0.1,-0.12,0.94,-4.63,2.76,5.34
0.19,0.08,-0.11,0.95,-0.76,8.4,5.21
0.21,0.1,-0.1,0.93,0.58,5.56,6.11
0.23,0.11,-0.11,0.93,-0.89,0.24,5.82
0.26,0.07,-0.12,0.95,-0.53,1.27,7.25
0.28,0.07,-0.11,0.92,1.4,6.6,10.29
0.3,0.11,-0.1,0.91,0.24,-4.47,8.99
0.33,0.11,-0.09,0.89,3.48,-8.84,8.89
0.35,0.11,-0.1,0.89,-3.37,-9.28,5.53
0.37,0.11,-0.12,0.93,-3.77,-3.95,6.21
0.4,0.18,-0.14,0.94,-2.75,-7.18,6.72
0.42,0.2,-0.11,0.92,2.23,-10.02,4.02
0.44,0.16,-0.11,0.93,-4.61,-2.78,0.32
0.47,0.2,-0.15,0.98,-9.63,-1.83,-1.05
0.49,0.19,-0.14,0.98,-7.56,1.63,-1.13
0.51,0.18,-0.14,0.99,-4.29,3.19,-4.61
0.54,0.16,-0.16,1.01,-8.18,4.26,-4.27
0.56,0.16,-0.15,0.98,1.68,9.65,-4.38
0.58,0.14,-0.15,0.98,0.53,11.07,-3.42
0.61,0.09,-0.12,0.96,1.37,13.13,-5.16
0.63,0.08,-0.12,0.96,-1.47,11.91,-13.8
0.66,0.06,-0.13,0.96,-3.94,10.76,-12.47
0.68,0.08,-0.17,0.98,-4.31,14.03,-5.15
0.71,0.13,-0.17,1.0,-3.5,17.27,5.25
0.73,0.09,-0.17,1.0,0.76,29.48,16.38
0.76,0.07,-0.18,1.0,-1.02,27.44,11.69
0.78,0.11,-0.17,0.98,1.77,7.68,7.04
0.8,0.14,-0.12,0.95,5.83,-6.63,1.59
0.83,0.15,-0.13,0.94,1.97,-13.02,-3.24
0.85,0.12,-0.13,0.97,0.12,-7.86,-4.09
0.88,0.13,-0.11,0.94,-2.05,-9.47,-2.96
0.9,0.15,-0.07,0.91,3.77,-18.98,-3.25
0.93,0.2,-0.14,0.94,0.35,-23.39,-5.37
0.95,0.21,-0.13,0.93,-0.08,-15.97,-2.41
0.98,0.22,-0.1,0.89,-2.64,-15.62,-6.6
1.0,0.22,-0.09,0.87,-3.65,-4.47,-1.18
1.02,0.23,-0.14,0.88,-7.95,4.49,8.46
1.05,0.28,-0.15,0.94,-21.31,-7.98,3.19
1.07,0.27,-0.13,0.94,-14.82,-24.5,-14.96
1.1,0.19,-0.15,0.93,-15.88,-14.37,-14.5
1.12,0.18,-0.19,0.98,-24.06,3.24,1.74
1.15,0.21,-0.13,0.95,-12.78,-0.56,8.26
1.17,0.25,-0.11,0.91,-10.93,-19.13,-2.06
1.2,0.21,-0.15,0.88,-16.11,-23.6,-10.7
1.22,0.27,-0.15,0.94,-34.21,-38.35,-11.82
1.25,0.21,-0.19,0.99,-32.67,-29.45,-14.58
1.27,0.2,-0.21,0.96,-31.05,-19.53,-28.79
1.3,0.24,-0.18,0.98,-31.22,-22.2,-29.66
1.32,0.29,-0.19,0.95,-23.56,-43.56,-33.91
1.35,0.29,-0.2,0.9,-23.8,-41.89,-42.2
1.37,0.32,-0.19,0.87,-21.36,-35.42,-39.62
1.4,0.38,-0.21,0.89,-26.9,-30.46,-34.72
1.42,0.33,-0.24,0.9,-38.47,0.7,-34.18
1.45,0.32,-0.29,0.9,-43.07,4.49,-39.63
1.47,0.32,-0.32,0.92,-43.76,-7.68,-48.98
1.5,0.27,-0.28,0.89,-28.84,0.31,-50.66
1.52,0.31,-0.32,0.91,-19.39,17.88,-37.77
1.55,0.29,-0.32,0.93,-15.89,28.5,-31.33
1.57,0.23,-0.3,0.92,-0.12,22.85,-45.74
3.39,0.2,0.02,0.98,-0.03,15.91,-52.61
3.41,0.22,0.01,0.99,-15.54,0.23,-3.48
3.44,0.2,0.04,0.97,-11.1,1.65,-1.33
3.46,0.22,0.05,0.93,-11.25,-1.63,-1.65
3.49,0.22,0.02,0.95,-14.17,-6.75,-1.34
3.51,0.23,0.01,0.96,-15.34,4.99,4.73
3.53,0.23,-0.0,0.97,-14.7,1.51,5.68
3.56,0.25,0.02,0.94,-15.11,-3.77,0.63
3.58,0.26,0.0,0.94,-13.66,3.8,3.44
3.6,0.23,-0.02,0.99,-14.87,6.56,2.9
3.63,0.23,0.0,0.97,-12.26,0.61,1.5
3.65,0.25,-0.0,0.96,-9.65,-0.85,1.86
3.67,0.2,0.01,0.95,-9.02,-1.85,-1.04
3.7,0.18,-0.01,0.96,-8.72,-2.32,-1.21
3.72,0.18,-0.02,0.95,-8.29,-6.66,3.82
3.74,0.16,-0.03,0.95,-8.26,-7.31,3.07
3.77,0.18,-0.01,0.94,-6.53,-5.15,6.43
3.79,0.18,-0.02,0.94,-7.79,-7.37,7.83
3.82,0.19,-0.03,0.95,-7.85,-6.93,10.21
3.84,0.18,-0.03,0.95,-6.5,-0.18,14.82
3.87,0.21,0.0,0.9,-4.79,-2.08,14.63
3.89,0.12,0.02,0.93,-11.83,-4.87,11.34
3.92,0.24,-0.1,1.0,-19.86,-22.47,9.13
3.94,0.27,-0.07,1.0,-10.15,-5.45,19.71
3.97,0.25,-0.06,0.94,-8.98,0.5,16.49
3.99,0.23,-0.06,0.94,-9.15,3.62,11.39
4.02,0.28,-0.08,0.97,-12.96,2.15,17.54
4.04,0.27,-0.06,0.95,-7.27,11.5,18.64
4.07,0.28,-0.06,0.93,-7.18,10.38,13.34
4.09,0.19,-0.09,0.98,-16.95,8.64,0.95
4.11,0.2,-0.11,0.98,-12.03,8.84,3.85
4.14,0.24,-0.08,0.96,-7.44,11.3,9.79
4.16,0.24,-0.07,0.93,-3.69,10.11,8.02
4.18,0.21,-0.09,0.94,-6.35,8.85,5.51
4.21,0.23,-0.09,0.96,-8.32,7.88,8.03
4.23,0.23,-0.08,0.94,-3.82,11.48,12.6
4.26,0.23,-0.08,0.95,-3.65,9.05,10.76
4.28,0.23,-0.08,0.96,-4.67,3.69,7.8
4.3,0.2,-0.07,0.97,-3.45,4.15,9.3
4.33,0.25,-0.09,0.99,-1.88,6.0,12.38
4.35,0.26,-0.09,1.0,-0.66,0.81,14.61
4.37,0.25,-0.11,1.0,0.98,-1.16,10.27
4.4,0.26,-0.09,0.93,6.81,-2.32,10.69
4.42,0.25,-0.07,0.91,6.75,-4.55,7.1
4.44,0.23,-0.06,0.9,5.3,-4.75,5.48
4.47,0.22,-0.08,0.94,2.27,-6.63,3.48
4.49,0.21,-0.06,0.93,3.95,-5.1,0.67
4.51,0.22,-0.06,0.92,2.23,-2.9,2.37
4.54,0.22,-0.07,0.94,-1.28,-1.57,3.04
4.56,0.2,-0.09,0.97,-5.76,-0.5,2.78
4.58,0.2,-0.09,0.98,-4.75,2.29,3.22
4.61,0.21,-0.09,0.98,-2.05,1.01,3.85
4.63,0.22,-0.09,0.98,1.36,0.08,1.22
4.65,0.2,-0.07,0.94,3.69,-0.66,1.3
4.68,0.21,-0.06,0.94,1.85,1.76,1.79
4.7,0.22,-0.08,0.95,-4.26,0.79,6.78
4.72,0.24,-0.09,0.98,-5.74,-3.37,4.26
4.75,0.26,-0.07,0.95,-3.42,-4.75,2.67
4.77,0.2,-0.04,0.91,1.6,5.97,1.01
4.79,0.21,-0.05,0.93,-2.41,6.08,1.11
4.82,0.26,-0.08,0.98,-8.32,0.17,4.85
4.84,0.24,-0.07,0.95,-2.15,2.64,2.72
4.86,0.24,-0.07,0.96,0.31,2.4,0.32
4.89,0.23,-0.07,0.97,0.67,4.99,0.6
4.91,0.23,-0.07,0.97,-0.58,3.83,1.82
4.93,0.24,-0.08,0.97,-0.29,3.74,3.37
4.96,0.25,-0.07,0.96,1.33,2.34,3.56
4.98,0.22,-0.08,0.95,3.11,3.76,0.9
5.0,0.21,-0.06,0.93,3.5,3.39,-1.01
5.03,0.22,-0.06,0.94,2.52,-1.3,-1.28
5.05,0.21,-0.06,0.93,1.91,1.18,0.09
5.07,0.23,-0.06,0.93,1.16,3.47,2.31
5.1,0.22,-0.06,0.93,0.66,5.37,1.18
5.12,0.22,-0.06,0.94,-0.66,3.21,-0.27
5.14,0.24,-0.06,0.95,-2.64,4.67,3.85
5.17,0.25,-0.06,0.97,-6.92,4.02,4.7
5.19,0.24,-0.06,0.94,-2.29,4.21,4.47
5.21,0.22,-0.04,0.93,-1.82,0.55,0.23
5.24,0.23,-0.04,0.93,-4.05,1.45,2.49
5.26,0.21,-0.05,0.95,-7.45,-4.18,-0.4
5.29,0.23,-0.05,0.94,-4.6,-3.57,1.97
5.31,0.22,-0.03,0.94,-1.21,-0.31,2.84
5.33,0.21,-0.04,0.95,-3.22,1.27,2.98
5.36,0.21,-0.05,0.97,-7.33,-0.67,1.95
5.38,0.21,-0.06,0.98,-7.07,-1.07,1.01
5.4,0.22,-0.06,0.96,-3.65,-1.79,1.86
5.43,0.21,-0.04,0.95,0.56,2.14,3.27
5.45,0.23,-0.05,0.96,-1.71,4.5,3.57
5.47,0.23,-0.05,0.96,-2.15,1.94,2.35
5.5,0.24,-0.05,0.95,-0.89,-1.08,0.72
5.52,0.24,-0.04,0.94,-0.67,3.83,3.5
5.54,0.24,-0.04,0.94,-0.89,6.56,3.66
5.57,0.22,-0.04,0.94,-0.95,2.47,-0.35
5.59,0.23,-0.05,0.97,-4.99,0.15,-1.44
5.62,0.26,-0.05,0.96,-3.59,-1.82,-0.72
5.64,0.23,-0.04,0.96,1.28,8.06,-0.37
5.66,0.24,-0.03,0.93,-0.24,2.99,-4.08
5.69,0.24,-0.05,0.94,-2.5,-1.42,-6.82
5.71,0.25,-0.05,0.96,-3.18,2.17,-4.15
5.73,0.22,-0.03,0.96,-0.7,7.85,-3.95
5.76,0.23,-0.04,0.95,-2.06,2.49,-4.2
5.78,0.24,-0.06,0.96,-1.97,3.91,-2.2
5.8,0.23,-0.05,0.95,-1.56,3.1,-2.27
5.83,0.2,-0.04,0.92,1.62,4.09,-3.79
5.85,0.2,-0.05,0.93,0.69,6.76,-0.2
5.87,0.22,-0.06,0.95,-0.76,12.08,5.04
5.9,0.21,-0.07,0.98,0.37,13.02,6.69
5.92,0.19,-0.06,0.96,6.34,11.6,4.21
5.94,0.2,-0.04,0.93,6.06,8.17,2.87
5.97,0.16,-0.04,0.93,3.45,8.27,2.99
5.99,0.15,-0.05,0.96,-1.97,5.22,2.12
6.01,0.15,-0.04,0.95,-2.03,2.64,3.85
6.04,0.17,-0.04,0.95,-2.47,1.62,6.23
6.06,0.17,-0.04,0.94,-0.18,2.84,8.0
6.08,0.17,-0.04,0.95,-0.03,4.75,9.05
6.11,0.18,-0.05,0.95,0.44,8.37,9.21
6.13,0.18,0.0,0.88,14.11,18.14,11.24
6.15,0.17,0.01,0.86,10.23,16.93,8.53
6.18,0.12,-0.01,0.93,-0.92,12.78,4.2
6.2,0.15,-0.05,1.0,-11.13,14.0,2.81
6.23,0.19,-0.05,0.99,-13.85,9.89,4.73
6.25,0.18,-0.04,0.96,-6.24,6.89,-1.8
6.28,0.19,-0.05,1.02,-5.77,13.22,-5.48
6.3,0.21,-0.04,0.99,-0.81,3.28,-13.94
6.33,0.12,0.0,0.95,2.52,6.18,-15.19
6.35,0.13,0.01,0.97,-0.35,-11.01,-21.11
6.38,0.24,-0.03,0.96,-5.01,-21.19,-20.82
6.4,0.18,-0.02,0.95,-0.61,4.85,-18.5
6.43,0.15,-0.02,0.95,-3.05,10.44,-19.3
6.45,0.15,-0.03,0.94,-1.56,4.81,-16.76
6.48,0.13,0.0,0.92,-2.9,1.62,-13.31
6.5,0.13,-0.0,0.93,-7.04,11.5,0.34
6.52,0.15,-0.03,0.95,-10.38,-3.4,1.19
6.55,0.15,-0.03,0.95,-7.44,0.87,4.49
6.57,0.16,-0.05,0.97,-12.46,8.52,10.27
6.59,0.16,-0.05,0.96,-9.47,6.11,8.95
6.62,0.12,-0.05,0.97,-9.42,5.42,-0.92
6.64,0.11,-0.06,0.97,-8.79,3.5,-6.61
6.66,0.09,-0.05,0.96,-4.55,11.77,1.4
6.69,0.09,-0.05,0.94,-4.46,9.11,5.33
6.71,0.13,-0.07,0.96,-9.73,-3.86,3.89
6.73,0.16,-0.08,0.97,-9.6,-6.14,7.19
6.76,0.11,-0.05,0.95,-3.76,5.15,12.64
6.78,0.12,-0.06,0.95,-5.45,7.91,17.01
6.81,0.17,-0.07,0.98,-7.54,-0.26,18.38
6.83,0.18,-0.07,0.96,-5.62,-3.88,17.25
6.86,0.16,-0.07,0.94,-4.21,-1.48,14.35
6.88,0.18,-0.06,0.94,-6.37,-12.67,6.46
6.91,0.2,-0.06,0.91,-4.44,-14.14,0.96
6.93,0.17,-0.05,0.9,-4.35,1.62,-3.97
6.95,0.15,-0.06,0.93,-6.72,2.66,-6.58
6.98,0.14,-0.07,0.98,-10.7,2.56,-6.18
7.0,0.17,-0.07,0.96,-3.74,-2.5,-5.89
7.03,0.16,-0.04,0.91,0.85,-4.27,-11.57
7.05,0.13,-0.05,0.96,-3.4,9.73,-10.99
7.08,0.14,-0.07,0.99,-5.16,10.17,-8.15
7.1,0.12,-0.05,0.96,-2.46,-2.98,-14.49
7.13,0.12,-0.04,0.95,-0.64,-1.07,-10.76
7.15,0.12,-0.07,0.99,-2.24,14.66,3.31
7.17,0.15,-0.1,1.0,-6.73,3.47,3.27
7.2,0.14,-0.08,0.97,-2.7,-4.81,1.18
7.22,0.14,-0.06,0.94,1.25,-6.79,3.02
7.24,0.15,-0.08,0.96,-0.6,2.31,11.13
7.27,0.19,-0.1,0.99,-2.6,7.04,14.14
7.29,0.18,-0.08,0.95,-2.37,-2.73,5.39
7.31,0.14,-0.06,0.93,-0.17,-4.0,0.81
7.34,0.11,-0.04,0.91,-1.56,-2.4,1.71
7.36,0.12,-0.05,0.91,-4.55,2.99,7.82
7.38,0.16,-0.05,0.9,-6.43,-5.92,4.09
7.41,0.21,-0.08,0.93,-8.66,-12.49,3.89
7.43,0.19,-0.09,0.98,-13.59,1.39,-0.23
7.46,0.18,-0.1,0.98,-12.15,4.0,-2.61
7.48,0.18,-0.09,0.95,-7.44,2.41,-3.62
7.5,0.17,-0.08,0.96,-6.53,3.74,-3.57
7.53,0.18,-0.1,0.98,-7.97,6.23,-1.62
7.55,0.15,-0.09,0.97,-7.62,3.98,-3.69
7.57,0.15,-0.08,0.96,-8.08,0.5,-3.42
7.6,0.13,-0.08,0.93,-8.34,3.16,-1.33
7.62,0.12,-0.1,0.97,-11.16,0.84,-3.08
7.65,0.18,-0.11,0.97,-6.56,-3.22,-0.89
7.67,0.2,-0.11,0.95,-4.89,-8.6,-2.44
7.7,0.16,-0.11,0.93,-5.71,-6.61,-4.47
7.72,0.15,-0.11,0.94,-5.08,3.15,-2.09
7.74,0.16,-0.11,0.95,-3.44,2.52,1.27
7.77,0.17,-0.12,0.95,-6.37,6.31,3.89
7.79,0.16,-0.12,0.97,-4.85,1.16,1.8
7.81,0.15,-0.11,0.96,-1.85,-4.03,0.82
7.84,0.15,-0.09,0.92,-0.66,1.82,3.57
7.86,0.17,-0.1,0.95,-5.88,1.34,6.81
7.88,0.2,-0.1,0.97,-5.11,-2.49,8.35
7.91,0.19,-0.1,0.96,-8.72,2.58,9.44
7.93,0.2,-0.12,0.96,-2.81,0.66,5.36
7.95,0.18,-0.11,0.96,0.2,2.75,3.8
7.98,0.23,-0.12,0.95,0.95,5.5,6.82
8.0,0.22,-0.1,0.98,-1.22,1.45,6.66
8.02,0.19,-0.1,0.97,0.31,0.12,1.18
8.05,0.16,-0.08,0.93,0.64,4.26,-0.2
8.07,0.17,-0.07,0.94,-2.87,-2.46,0.34
8.1,0.16,-0.08,0.95,-2.84,-2.03,-0.53
8.12,0.15,-0.07,0.92,-2.2,1.27,-2.69
8.14,0.13,-0.08,0.95,-6.18,1.6,-3.53
8.17,0.14,-0.09,0.96,-7.68,-0.11,-1.4
8.19,0.14,-0.1,0.94,-4.72,1.27,-1.05
8.21,0.13,-0.1,0.93,-3.66,4.4,-2.75
8.24,0.17,-0.11,0.94,-6.56,-2.95,-6.99
8.26,0.2,-0.14,0.97,-7.53,7.86,-3.62
8.28,0.18,-0.14,0.99,-7.27,9.33,-7.66
8.31,0.13,-0.12,0.96,-7.86,4.21,-11.33
8.33,0.14,-0.13,0.96,-6.7,5.01,-11.04
8.36,0.09,-0.12,0.94,-6.72,7.66,-8.96
