timestamp,acce_x,acce_y,acce_z,gyro_x,gyro_y,gyro_z
0.0,0.24,-0.13,0.95,-8.6,6.38,-17.24
0.02,0.23,-0.11,0.93,-3.65,11.27,-16.95
0.05,0.22,-0.14,0.95,-3.37,13.13,-14.99
0.07,0.22,-0.14,0.94,-3.76,9.56,-15.01
0.1,0.21,-0.13,0.92,-2.66,1.59,-16.95
0.12,0.2,-0.14,0.94,-4.78,8.93,-12.29
0.15,0.22,-0.16,0.95,-9.63,7.27,-9.57
0.17,0.22,-0.13,0.93,-6.08,0.78,-12.38
0.2,0.21,-0.14,0.92,-5.45,5.79,-9.66
0.22,0.22,-0.15,0.93,-10.11,-0.78,-7.02
0.25,0.24,-0.13,0.92,-10.27,-0.82,-7.21
0.27,0.23,-0.12,0.92,-10.49,3.54,-8.49
0.3,0.25,-0.15,0.96,-10.98,4.66,-6.76
0.32,0.25,-0.15,0.96,-10.96,1.37,-9.42
0.35,0.24,-0.16,0.98,-10.55,2.67,-10.37
0.37,0.25,-0.18,1.0,-10.92,3.6,-7.89
0.4,0.21,-0.19,0.98,-9.95,2.02,-13.11
0.42,0.18,-0.17,0.95,-0.11,7.28,-16.41
0.45,0.15,-0.18,0.94,0.72,5.34,-16.92
0.47,0.15,-0.17,0.94,-0.98,4.61,-14.24
0.5,0.13,-0.17,0.92,-1.69,4.06,-13.65
0.52,0.14,-0.17,0.92,-0.56,3.3,-9.76
0.54,0.16,-0.18,0.93,0.35,3.47,-6.5
0.57,0.12,-0.2,0.96,0.4,3.21,-6.18
0.59,0.11,-0.18,0.96,3.74,-2.27,-11.02
0.62,0.15,-0.16,0.92,1.8,-1.65,-10.18
0.64,0.06,-0.22,0.96,-4.03,1.5,-19.22
0.67,-0.1,-0.29,1.05,-7.59,-4.96,-31.82
0.69,-0.03,-0.28,1.01,4.49,-2.18,-6.2
0.72,0.01,-0.23,0.94,15.53,-3.86,-2.95
0.74,-0.02,-0.21,0.91,11.42,-4.0,-20.78
0.77,-0.05,-0.23,0.92,11.8,-1.76,-23.31
0.79,-0.01,-0.23,0.93,8.47,-5.97,-6.85
0.82,0.11,-0.2,0.89,5.33,-16.61,6.11
0.84,0.17,-0.21,0.91,5.33,-8.92,24.6
0.86,0.19,-0.2,0.9,1.39,0.41,26.78
0.89,0.19,-0.16,0.94,4.89,-1.65,23.19
0.91,0.16,-0.17,0.99,-0.92,26.0,31.74
0.94,0.1,-0.2,1.04,-1.6,42.55,44.06
0.96,0.13,-0.16,0.98,4.75,27.86,51.91
0.98,0.09,-0.11,0.88,-3.11,9.76,51.68
1.01,0.05,-0.1,0.87,4.2,13.25,51.71
1.03,0.1,-0.12,0.93,-4.5,18.44,56.73
1.06,0.15,-0.2,1.03,-0.73,22.6,64.05
1.08,0.16,-0.17,0.98,4.92,23.92,74.11
1.1,0.18,-0.14,0.9,6.75,12.44,69.66
1.13,0.16,-0.08,0.86,11.48,6.06,63.5
1.15,0.12,-0.05,0.83,15.53,23.89,55.15
1.18,0.19,-0.09,0.9,7.24,36.92,57.71
1.2,0.17,-0.07,0.9,1.51,30.26,58.31
1.22,0.1,-0.02,0.88,0.56,30.38,48.29
1.25,0.08,-0.01,0.88,-4.2,17.57,44.53
1.27,0.07,0.03,0.89,-2.27,40.66,57.04
1.3,0.22,-0.14,1.08,-13.13,14.66,59.42
1.32,0.3,-0.06,1.08,-20.52,-4.73,55.21
1.35,0.19,0.0,0.94,-13.91,-8.21,48.41
1.37,0.17,-0.04,0.97,-14.92,-0.05,43.31
1.4,0.24,-0.12,1.03,-21.8,-9.51,40.35
1.42,0.25,-0.08,0.97,-8.41,-19.98,39.34
1.45,0.27,-0.08,0.91,3.13,-17.24,36.31
1.47,0.26,-0.09,0.93,-3.37,-22.69,32.11
1.5,0.24,-0.06,0.87,-0.84,-16.49,30.11
1.52,0.3,-0.08,0.88,-10.95,-11.62,28.32
1.55,0.24,-0.16,0.97,-19.83,1.18,28.37
1.57,0.26,-0.17,1.0,-11.5,1.97,22.12
1.6,0.3,-0.16,0.96,-9.25,-10.32,18.7
2.18,0.14,-0.11,0.92,-3.86,3.02,-4.41
2.2,0.13,-0.12,0.95,-5.65,6.05,-3.13
2.22,0.11,-0.14,0.96,-2.76,2.5,-2.69
2.25,0.13,-0.13,0.94,-3.15,1.76,-3.1
2.27,0.16,-0.14,0.95,-6.38,2.52,-3.16
2.29,0.15,-0.17,0.97,-0.72,5.13,-5.44
2.32,0.16,-0.14,0.97,0.35,3.36,-6.56
2.34,0.13,-0.14,0.96,1.94,7.31,-8.56
2.36,0.12,-0.13,0.96,1.01,4.41,-8.23
2.39,0.14,-0.12,0.95,0.06,6.79,-9.04
2.41,0.13,-0.12,0.96,-1.63,8.75,-9.77
2.43,0.09,-0.12,0.96,-0.11,6.02,-10.27
2.46,0.08,-0.11,0.93,-1.02,3.76,-7.73
2.48,0.11,-0.11,0.94,-2.6,1.77,-7.1
2.5,0.13,-0.14,0.95,0.52,8.37,-8.27
2.53,0.08,-0.11,0.94,-0.44,10.89,-10.29
2.55,0.05,-0.13,0.95,-2.6,9.88,-9.66
2.58,0.06,-0.12,0.93,2.79,2.93,-7.25
2.6,0.08,-0.11,0.92,-0.41,10.2,-7.11
2.62,0.07,-0.1,0.91,-4.96,7.42,-7.31
2.65,0.06,-0.12,0.94,-4.12,5.34,-4.75
2.67,0.09,-0.13,0.94,-3.6,2.67,-4.4
2.69,0.09,-0.13,0.94,-3.28,5.25,-4.82
2.72,0.09,-0.14,0.96,-1.18,3.86,-3.74
2.74,0.12,-0.14,0.97,-0.11,-0.02,-5.44
2.77,0.13,-0.13,0.94,1.62,1.68,-7.54
2.79,0.13,-0.12,0.93,-0.53,1.19,-9.28
2.81,0.13,-0.13,0.93,-0.84,4.29,-11.25
2.84,0.11,-0.13,0.94,-1.19,8.47,-12.93
2.86,0.1,-0.12,0.93,-0.32,8.84,-13.71
2.89,0.07,-0.11,0.94,-1.02,5.3,-12.99
2.91,0.07,-0.11,0.94,-1.77,4.92,-11.18
2.94,0.05,-0.12,0.94,-1.47,7.53,-9.18
2.96,0.03,-0.1,0.94,-2.6,11.3,-8.03
2.99,0.04,-0.12,0.95,-4.26,8.85,-5.28
3.01,0.04,-0.13,0.96,-3.15,3.5,-4.64
3.03,0.04,-0.13,0.96,0.78,2.37,-4.81
3.06,0.08,-0.12,0.93,-1.66,4.81,-7.25
3.08,0.08,-0.11,0.95,-3.94,7.8,-7.18
3.1,0.07,-0.11,0.96,-0.84,1.36,-7.19
3.13,0.07,-0.12,0.96,-1.25,4.46,-8.99
3.15,0.05,-0.11,0.96,-3.59,2.38,-11.07
3.18,0.05,-0.11,0.94,-1.59,2.75,-9.07
3.2,0.04,-0.1,0.94,-0.4,-1.34,-7.95
3.23,0.04,-0.11,0.95,-0.79,-0.72,-4.78
3.25,0.05,-0.12,0.96,-0.35,-3.94,-2.35
3.28,0.09,-0.13,0.94,4.27,-0.73,-1.69
3.3,0.08,-0.11,0.95,3.91,-3.4,-1.11
3.32,0.06,-0.12,0.93,3.83,0.55,0.18
3.35,0.11,-0.11,0.94,1.01,0.18,0.23
3.37,0.09,-0.11,0.93,3.8,-1.18,-1.62
3.39,0.1,-0.11,0.92,0.06,-0.24,-2.82
3.42,0.07,-0.1,0.95,1.59,3.37,-2.89
3.44,0.06,-0.09,0.94,1.57,3.21,-2.03
3.46,0.07,-0.08,0.94,-0.34,1.89,-0.5
3.49,0.08,-0.09,0.94,-0.96,0.53,-1.21
3.51,0.09,-0.09,0.94,-1.56,1.11,-1.34
3.53,0.1,-0.07,0.93,-2.58,2.18,-2.09
3.56,0.07,-0.07,0.92,-6.81,-1.11,-3.4
3.58,0.08,-0.06,0.93,-7.16,-5.59,-6.58
3.61,0.08,-0.06,0.93,-14.63,-1.11,-4.56
3.63,0.05,-0.11,0.95,-12.29,4.75,-4.12
3.66,0.05,-0.09,0.96,-7.73,3.33,-2.85
3.68,0.04,-0.09,0.96,-6.73,2.58,-2.41
3.7,0.04,-0.08,0.97,-9.85,2.37,-0.2
3.73,0.02,-0.11,0.95,-6.11,-0.76,0.23
3.75,0.05,-0.12,0.98,-5.74,-0.12,-0.89
3.78,0.06,-0.12,0.96,-2.73,1.92,-5.33
3.8,0.05,-0.11,0.95,-2.9,5.05,-5.02
3.82,0.05,-0.12,0.96,-2.5,5.39,-4.58
3.85,0.05,-0.12,0.95,-3.19,2.84,-5.36
3.87,0.05,-0.12,0.95,-4.96,3.59,-5.34
3.89,0.05,-0.13,0.97,-2.47,2.87,-6.38
3.92,0.05,-0.12,0.94,-2.9,2.12,-5.22
3.94,0.05,-0.12,0.95,-2.95,3.82,-4.64
3.96,0.05,-0.12,0.95,-3.05,3.21,-4.44
3.99,0.04,-0.12,0.94,-3.36,0.69,-3.21
4.01,0.06,-0.11,0.95,-1.47,0.12,-2.92
4.03,0.06,-0.11,0.94,-2.0,4.41,-1.88
4.06,0.05,-0.12,0.95,-1.54,-0.63,-1.98
4.08,0.07,-0.11,0.94,-1.22,-4.02,-2.76
4.11,0.08,-0.11,0.95,-1.11,4.2,-2.98
4.13,0.07,-0.12,0.95,-1.1,5.59,-4.11
4.15,0.06,-0.1,0.94,-1.3,5.07,-5.62
4.18,0.06,-0.09,0.93,-4.06,0.58,-8.17
4.2,0.07,-0.1,0.93,-5.4,2.96,-9.22
4.22,0.06,-0.12,0.96,-4.55,5.85,-10.02
4.25,0.04,-0.12,0.96,-0.75,2.95,-8.7
4.27,0.04,-0.09,0.94,-1.34,0.17,-7.39
4.29,0.07,-0.1,0.96,-1.88,-1.94,-6.23
4.32,0.09,-0.11,0.96,-0.32,-3.33,-7.53
4.34,0.1,-0.11,0.95,1.13,-2.37,-9.1
4.37,0.09,-0.11,0.96,3.36,1.59,-10.14
4.39,0.09,-0.11,0.94,2.38,-2.67,-11.77
4.42,0.1,-0.12,0.96,4.06,-5.71,-12.4
4.44,0.12,-0.11,0.94,3.21,-4.79,-13.73
4.47,0.11,-0.11,0.93,2.61,3.11,-17.18
4.49,0.09,-0.11,0.93,1.48,3.1,-15.77
4.51,0.08,-0.13,0.96,2.43,3.97,-14.29
4.54,0.11,-0.13,0.95,3.05,-7.04,-19.16
4.56,0.11,-0.13,0.95,2.46,-4.31,-20.66
4.59,0.11,-0.13,0.96,3.15,-6.76,-20.84
4.61,0.12,-0.12,0.94,5.36,-2.41,-22.98
4.64,0.09,-0.09,0.93,-0.26,1.8,-23.51
4.66,0.07,-0.09,0.94,-3.56,1.3,-21.47
4.69,0.08,-0.11,0.96,-2.85,-1.24,-18.49
4.71,0.08,-0.12,0.97,0.73,0.58,-15.04
4.74,0.13,-0.1,0.92,0.52,-0.56,-15.07
4.76,0.15,-0.1,0.94,-4.21,20.53,-8.69
4.79,-0.02,-0.12,0.99,4.96,28.11,0.46
4.81,-0.0,-0.1,0.96,2.52,-6.11,-4.21
4.84,0.09,-0.09,0.91,-4.02,-3.34,-3.3
4.86,0.11,-0.1,0.93,-7.33,7.8,-4.06
4.89,0.07,-0.12,0.97,-6.31,0.0,-14.24
4.91,0.05,-0.12,0.96,-3.83,0.18,-13.16
4.94,0.04,-0.1,0.93,-2.84,-5.95,-9.11
4.96,0.08,-0.1,0.93,-4.9,-4.63,-8.35
4.99,0.09,-0.12,0.94,-7.36,-0.03,-14.85
5.01,0.06,-0.12,0.95,-6.34,0.7,-19.01
5.04,-0.03,-0.12,0.94,3.33,5.73,-5.04
5.06,0.03,-0.1,0.95,-8.56,-4.46,-2.0
5.09,0.1,-0.1,0.92,-9.63,-12.09,-9.07
5.11,0.1,-0.11,0.92,-11.65,-2.43,-6.31
5.14,0.06,-0.1,0.95,-11.42,1.34,-1.56
5.16,0.08,-0.11,0.95,-11.44,-4.03,-3.51
5.19,0.09,-0.11,0.94,-15.44,-1.71,-1.6
5.21,0.09,-0.11,0.93,-13.62,0.67,3.85
5.24,0.09,-0.15,0.98,-9.59,-6.52,1.76
5.26,0.13,-0.14,0.96,-5.53,-8.64,-1.44
5.29,0.14,-0.12,0.94,-6.32,2.18,-3.65
5.31,0.13,-0.14,0.96,-6.89,-0.15,-9.39
5.34,0.11,-0.14,0.97,-3.98,-3.36,-13.34
5.36,0.1,-0.14,0.96,-3.21,0.2,-12.4
5.39,0.1,-0.13,0.96,-0.63,-1.39,-10.87
5.41,0.11,-0.12,0.95,-3.3,-5.88,-13.47
5.44,0.11,-0.13,0.95,-2.12,-5.54,-14.4
5.46,0.1,-0.13,0.95,-3.18,-5.19,-13.68
5.49,0.08,-0.12,0.94,-4.95,-2.6,-7.85
5.51,0.12,-0.14,0.95,-5.33,-9.02,-7.65
5.54,0.14,-0.14,0.94,-5.02,-10.03,-10.79
5.56,0.13,-0.15,0.93,-3.48,-5.47,-10.89
5.59,0.15,-0.16,0.94,-2.11,-9.33,-10.61
5.61,0.17,-0.14,0.94,-1.11,0.18,-11.86
5.64,0.16,-0.15,0.95,-7.97,2.46,-15.34
5.66,0.14,-0.16,0.97,-2.49,5.92,-15.88
5.69,0.13,-0.15,0.97,-0.85,6.24,-15.97
5.71,0.1,-0.13,0.94,-1.66,3.57,-13.08
5.74,0.14,-0.13,0.94,-5.88,-6.99,-14.46
5.76,0.16,-0.14,0.96,-5.65,-0.2,-12.78
5.79,0.14,-0.14,0.96,-3.86,-0.08,-9.63
5.81,0.15,-0.13,0.95,-3.6,-8.15,-11.71
5.84,0.2,-0.14,0.93,-4.29,-4.79,-11.92
5.86,0.18,-0.14,0.93,-4.73,-4.31,-10.95
5.89,0.23,-0.16,0.95,-2.9,-5.62,-14.14
5.91,0.24,-0.17,0.96,-1.56,-3.95,-23.6
5.94,0.2,-0.16,0.94,-1.74,6.64,-23.97
5.96,0.15,-0.16,0.95,-1.5,0.5,-22.23
5.99,0.11,-0.15,0.95,-4.26,-1.42,-11.76
6.01,0.14,-0.14,0.96,-2.93,-2.92,-7.19
6.04,0.17,-0.16,0.97,-2.03,-4.87,-9.73
6.06,0.18,-0.16,0.96,1.34,-1.92,-9.01
6.09,0.2,-0.16,0.95,1.97,1.28,-9.54
6.11,0.19,-0.15,0.94,2.89,-3.37,-10.52
6.13,0.2,-0.15,0.93,3.31,-2.9,-8.08
6.16,0.22,-0.12,0.92,-1.65,-3.25,-9.04
6.18,0.22,-0.13,0.92,-3.66,1.4,-8.58
6.21,0.21,-0.14,0.93,-6.55,-0.93,-10.21
6.23,0.2,-0.13,0.94,-7.1,1.59,-8.76
6.26,0.2,-0.14,0.94,-9.5,1.66,-6.15
6.28,0.21,-0.15,0.97,-7.22,-1.95,-7.36
6.31,0.21,-0.16,0.95,-6.15,-0.26,-6.43
6.33,0.22,-0.17,0.94,-0.64,2.4,-5.73
6.36,0.21,-0.16,0.94,-1.57,-2.89,-8.49
6.38,0.23,-0.16,0.94,-1.76,0.93,-9.76
6.41,0.18,-0.16,0.97,-1.21,-4.93,-5.25
6.43,0.2,-0.13,0.93,-2.63,-5.82,-5.89
6.46,0.21,-0.14,0.95,-7.04,-1.5,-5.36
6.48,0.19,-0.15,0.95,-9.42,-2.55,-4.58
6.51,0.18,-0.14,0.92,-9.5,-1.56,2.67
6.53,0.23,-0.15,0.91,-14.21,-5.74,0.93
6.56,0.23,-0.2,0.92,-13.48,-1.05,-3.68
6.58,0.22,-0.17,0.91,-12.32,6.21,-3.3
6.61,0.2,-0.17,0.93,-17.18,0.17,-2.82
6.63,0.23,-0.19,0.94,-16.52,0.99,-3.73
6.66,0.22,-0.19,0.94,-16.06,3.57,-4.89
6.68,0.22,-0.18,0.95,-13.25,1.69,-4.35
6.71,0.23,-0.21,0.97,-11.27,-0.08,-8.9
6.73,0.21,-0.26,1.07,1.69,12.0,-10.18
6.76,0.23,-0.19,0.95,-8.5,6.35,-9.4
6.78,0.24,-0.17,0.93,2.18,8.98,-6.89
6.8,0.21,-0.18,0.94,-7.94,3.01,-6.41
6.83,0.21,-0.15,0.92,-6.9,2.47,-6.0
6.85,0.21,-0.16,0.93,-10.63,-1.15,-6.6
6.88,0.24,-0.2,0.96,-9.74,-2.64,-8.18
6.9,0.26,-0.2,0.95,-7.39,0.35,-10.02
6.93,0.23,-0.22,0.94,-7.97,6.21,-10.37
6.95,0.23,-0.23,0.94,-5.56,1.82,-12.05
6.98,0.26,-0.23,0.9,-6.38,-0.37,-15.19
7.0,0.22,-0.23,0.9,-9.57,2.18,-14.99
7.03,0.24,-0.23,0.91,-9.24,3.36,-13.97
7.05,0.21,-0.25,0.92,-7.5,3.5,-15.47
7.08,0.22,-0.22,0.89,-5.22,-3.79,-16.69
7.1,0.23,-0.21,0.88,-10.58,1.97,-16.06
7.13,0.21,-0.23,0.92,-15.11,-3.15,-15.92
